subNum	 version	 completed	 trialNo	 easySide	 targPresent	key	 targSide	 RT	 accuracy	 var	 con
2	 T	2	1	 x	1	 l	 left	2.619	1	1.7	 full
2	 T	2	2	 x	1	 l	 left	1.571	1	6	 full
2	 T	2	3	 x	1	 l	 right	1.521	1	6	 full
2	 T	2	4	 L	1	 l	 left	1.431	1	 x	 half
2	 T	2	5	 L	1	 r	 right	1.651	0	 x	 half
2	 T	2	6	 x	0	 r	 x	1.681	1	6	 full
2	 T	2	7	 L	0	 r	 x	3.391	1	 x	 half
2	 T	2	8	 x	0	 r	 x	2.831	1	1.7	 full
2	 T	2	9	 x	1	 l	 right	1.619	1	6	 full
2	 T	2	10	 x	1	 l	 right	1.891	1	1.7	 full
2	 T	2	11	 L	1	 l	 right	2.081	1	 x	 half
2	 T	2	12	 x	1	 l	 left	1.872	1	1.7	 full
2	 T	2	13	 x	0	 r	 x	1.6	1	6	 full
2	 T	2	14	 x	1	 l	 left	1.451	1	6	 full
2	 T	2	15	 x	1	 l	 left	1.461	1	6	 full
2	 T	2	16	 R	1	 l	 right	1.462	1	 x	 half
2	 T	2	17	 x	0	 r	 x	2.322	1	1.7	 full
2	 T	2	18	 x	0	 r	 x	2.588	1	1.7	 full
2	 T	2	19	 x	1	 l	 left	1.427	1	6	 full
2	 T	2	20	 R	0	 r	 x	2.593	1	 x	 half
2	 T	2	21	 x	0	 r	 x	2.576	1	1.7	 full
2	 T	2	22	 x	1	 l	 left	1.488	1	6	 full
2	 T	2	23	 x	0	 r	 x	2.671	1	1.7	 full
2	 T	2	24	 R	0	 r	 x	2.392	1	 x	 half
2	 T	2	25	 x	0	 l	 x	1.611	0	6	 full
2	 T	2	26	 x	1	 l	 right	2.782	1	1.7	 full
2	 T	2	27	 x	1	 l	 left	1.53	1	6	 full
2	 T	2	28	 x	0	 r	 x	3.431	1	1.7	 full
2	 T	2	29	 x	1	 l	 right	1.591	1	6	 full
2	 T	2	30	 x	0	 r	 x	1.632	1	6	 full
2	 T	2	31	 L	1	 l	 right	2.57	1	 x	 half
2	 T	2	32	 x	0	 r	 x	1.541	1	6	 full
2	 T	2	33	 x	0	 r	 x	2.521	1	1.7	 full
2	 T	2	34	 R	0	 r	 x	2.721	1	 x	 half
2	 T	2	35	 L	1	 l	 left	1.511	1	 x	 half
2	 T	2	36	 R	0	 r	 x	2.914	1	 x	 half
2	 T	2	37	 x	1	 l	 left	1.641	1	6	 full
2	 T	2	38	 x	1	 l	 left	1.481	1	6	 full
2	 T	2	39	 x	0	 r	 x	1.711	1	6	 full
2	 T	2	40	 L	0	 r	 x	3.116	1	 x	 half
2	 T	2	41	 x	0	 r	 x	1.541	1	6	 full
2	 T	2	42	 x	1	 l	 right	1.552	1	6	 full
2	 T	2	43	 x	1	 l	 right	2.403	1	1.7	 full
2	 T	2	44	 R	1	 l	 right	1.551	1	 x	 half
2	 T	2	45	 x	1	 l	 left	1.712	1	1.7	 full
2	 T	2	46	 L	1	 l	 left	1.524	1	 x	 half
2	 T	2	47	 L	1	 r	 right	3.046	0	 x	 half
2	 T	2	48	 L	1	 l	 left	1.472	1	 x	 half
2	 T	2	49	 L	1	 l	 right	1.572	1	 x	 half
2	 T	2	50	 L	0	 r	 x	2.711	1	 x	 half
2	 T	2	51	 x	1	 l	 right	1.688	1	1.7	 full
2	 T	2	52	 R	1	 l	 left	1.921	1	 x	 half
2	 T	2	53	 x	1	 l	 right	1.612	1	1.7	 full
2	 T	2	54	 x	1	 l	 left	1.611	1	1.7	 full
2	 T	2	55	 R	0	 r	 x	1.786	1	 x	 half
2	 T	2	56	 L	0	 r	 x	2.521	1	 x	 half
2	 T	2	57	 x	1	 l	 left	1.514	1	6	 full
2	 T	2	58	 x	0	 r	 x	1.722	1	1.7	 full
2	 T	2	59	 x	0	 r	 x	2.502	1	1.7	 full
2	 T	2	60	 R	1	 l	 right	1.49	1	 x	 half
2	 T	2	61	 x	0	 r	 x	1.601	1	1.7	 full
2	 T	2	62	 L	1	 l	 left	1.56	1	 x	 half
2	 T	2	63	 x	0	 r	 x	1.541	1	6	 full
2	 T	2	64	 R	1	 l	 right	1.531	1	 x	 half
2	 T	2	65	 x	0	 r	 x	1.563	1	6	 full
2	 T	2	66	 x	1	 l	 right	1.692	1	6	 full
2	 T	2	67	 R	0	 r	 x	1.512	1	 x	 half
2	 T	2	68	 R	0	 r	 x	1.882	1	 x	 half
2	 T	2	69	 x	0	 r	 x	2.712	1	1.7	 full
2	 T	2	70	 x	1	 l	 left	1.583	1	1.7	 full
2	 T	2	71	 x	0	 r	 x	1.542	1	6	 full
2	 T	2	72	 x	0	 r	 x	1.592	1	1.7	 full
2	 T	2	73	 x	1	 l	 left	2.792	1	1.7	 full
2	 T	2	74	 x	0	 r	 x	1.649	1	6	 full
2	 T	2	75	 R	1	 r	 left	2.73	0	 x	 half
2	 T	2	76	 x	0	 r	 x	2.761	1	1.7	 full
2	 T	2	77	 x	0	 r	 x	2.747	1	1.7	 full
2	 T	2	78	 x	0	 r	 x	1.462	1	6	 full
2	 T	2	79	 x	0	 r	 x	1.542	1	1.7	 full
2	 T	2	80	 R	1	 l	 right	1.522	1	 x	 half
2	 T	2	81	 x	0	 r	 x	1.493	1	6	 full
2	 T	2	82	 R	0	 r	 x	2.632	1	 x	 half
2	 T	2	83	 L	0	 r	 x	2.892	1	 x	 half
2	 T	2	84	 x	1	 l	 right	1.541	1	6	 full
2	 T	2	85	 R	1	 l	 right	1.534	1	 x	 half
2	 T	2	86	 L	1	 l	 left	1.492	1	 x	 half
2	 T	2	87	 x	1	 l	 right	1.471	1	6	 full
2	 T	2	88	 x	0	 r	 x	1.642	1	6	 full
2	 T	2	89	 x	0	 r	 x	1.531	1	6	 full
2	 T	2	90	 x	0	 r	 x	3.052	1	1.7	 full
2	 T	2	91	 L	1	 l	 left	1.563	1	 x	 half
2	 T	2	92	 x	1	 l	 right	1.701	1	1.7	 full
2	 T	2	93	 L	0	 r	 x	1.581	1	 x	 half
2	 T	2	94	 x	1	 l	 right	1.587	1	6	 full
2	 T	2	95	 R	0	 r	 x	3.073	1	 x	 half
2	 T	2	96	 x	1	 l	 right	1.562	1	6	 full
2	 T	2	97	 x	0	 r	 x	1.522	1	6	 full
2	 T	2	98	 x	0	 r	 x	1.501	1	6	 full
2	 T	2	99	 L	1	 l	 right	1.821	1	 x	 half
2	 T	2	100	 x	0	 r	 x	1.781	1	1.7	 full
2	 T	2	101	 x	0	 r	 x	1.5	1	6	 full
2	 T	2	102	 x	0	 r	 x	2.592	1	1.7	 full
2	 T	2	103	 R	0	 r	 x	2.772	1	 x	 half
2	 T	2	104	 L	1	 l	 left	1.769	1	 x	 half
2	 T	2	105	 x	0	 r	 x	2.788	1	1.7	 full
2	 T	2	106	 x	1	 l	 right	1.521	1	6	 full
2	 T	2	107	 x	1	 l	 right	1.823	1	1.7	 full
2	 T	2	108	 x	1	 l	 left	1.662	1	1.7	 full
2	 T	2	109	 R	1	 l	 right	1.582	1	 x	 half
2	 T	2	110	 L	1	 l	 right	2.281	1	 x	 half
2	 T	2	111	 x	1	 l	 left	1.541	1	1.7	 full
2	 T	2	112	 x	1	 l	 left	1.801	1	1.7	 full
2	 T	2	113	 L	0	 r	 x	2.337	1	 x	 half
2	 T	2	114	 x	1	 l	 left	1.505	1	6	 full
2	 T	2	115	 x	0	 r	 x	1.721	1	6	 full
2	 T	2	116	 x	1	 l	 right	1.89	1	1.7	 full
2	 T	2	117	 x	0	 r	 x	1.522	1	6	 full
2	 T	2	118	 R	1	 l	 right	1.561	1	 x	 half
2	 T	2	119	 R	1	 r	 left	2.611	0	 x	 half
2	 T	2	120	 L	1	 l	 left	1.673	1	 x	 half
2	 T	2	121	 x	0	 r	 x	2.942	1	1.7	 full
2	 T	2	122	 L	0	 r	 x	1.703	1	 x	 half
2	 T	2	123	 x	0	 r	 x	1.642	1	6	 full
2	 T	2	124	 x	1	 l	 right	1.58	1	6	 full
2	 T	2	125	 x	0	 r	 x	1.511	1	6	 full
2	 T	2	126	 x	1	 l	 left	1.731	1	1.7	 full
2	 T	2	127	 x	1	 l	 right	1.671	1	1.7	 full
2	 T	2	128	 L	0	 r	 x	1.611	1	 x	 half
2	 T	2	129	 x	0	 r	 x	2.711	1	1.7	 full
2	 T	2	130	 R	0	 r	 x	1.571	1	 x	 half
2	 T	2	131	 x	0	 r	 x	2.655	1	1.7	 full
2	 T	2	132	 x	0	 r	 x	1.612	1	6	 full
2	 T	2	133	 R	1	 l	 right	1.571	1	 x	 half
2	 T	2	134	 x	1	 l	 right	1.753	1	1.7	 full
2	 T	2	135	 L	0	 r	 x	1.542	1	 x	 half
2	 T	2	136	 x	1	 l	 right	1.771	1	1.7	 full
2	 T	2	137	 x	1	 l	 right	2.621	1	1.7	 full
2	 T	2	138	 x	0	 r	 x	1.511	1	6	 full
2	 T	2	139	 x	0	 r	 x	1.532	1	6	 full
2	 T	2	140	 x	1	 l	 right	1.711	1	1.7	 full
2	 T	2	141	 R	0	 r	 x	1.62	1	 x	 half
2	 T	2	142	 x	1	 l	 right	1.501	1	6	 full
2	 T	2	143	 L	0	 r	 x	2.451	1	 x	 half
2	 T	2	144	 x	1	 l	 right	2.51	1	1.7	 full
2	 T	2	145	 x	0	 r	 x	2.652	1	1.7	 full
2	 T	2	146	 x	1	 l	 left	1.514	1	6	 full
2	 T	2	147	 x	0	 r	 x	2.75	1	1.7	 full
2	 T	2	148	 R	1	 l	 right	1.528	1	 x	 half
2	 T	2	149	 x	0	 r	 x	2.443	1	1.7	 full
2	 T	2	150	 x	1	 l	 left	1.724	1	1.7	 full
2	 T	2	151	 x	0	 r	 x	1.512	1	6	 full
2	 T	2	152	 L	0	 r	 x	1.561	1	 x	 half
2	 T	2	153	 R	1	 l	 left	1.991	1	 x	 half
2	 T	2	154	 x	0	 r	 x	2.531	1	1.7	 full
2	 T	2	155	 x	1	 l	 right	1.59	1	6	 full
2	 T	2	156	 x	1	 l	 right	1.641	1	1.7	 full
2	 T	2	157	 x	1	 l	 left	1.46	1	6	 full
2	 T	2	158	 x	0	 r	 x	1.541	1	6	 full
2	 T	2	159	 x	1	 l	 right	1.582	1	6	 full
2	 T	2	160	 x	1	 l	 right	1.616	1	6	 full
2	 T	2	161	 x	0	 r	 x	1.513	1	6	 full
2	 T	2	162	 R	0	 r	 x	2.322	1	 x	 half
2	 T	2	163	 R	1	 l	 left	1.506	1	 x	 half
2	 T	2	164	 x	1	 l	 left	1.7	1	1.7	 full
2	 T	2	165	 x	0	 r	 x	2.413	1	1.7	 full
2	 T	2	166	 x	1	 l	 right	2.409	1	1.7	 full
2	 T	2	167	 x	1	 l	 right	1.771	1	1.7	 full
2	 T	2	168	 L	0	 r	 x	2.712	1	 x	 half
2	 T	2	169	 L	1	 l	 left	1.517	1	 x	 half
2	 T	2	170	 x	1	 l	 right	1.581	1	6	 full
2	 T	2	171	 R	0	 r	 x	2.461	1	 x	 half
2	 T	2	172	 x	1	 l	 right	1.53	1	6	 full
2	 T	2	173	 x	0	 r	 x	1.542	1	6	 full
2	 T	2	174	 x	1	 l	 left	1.512	1	1.7	 full
2	 T	2	175	 x	0	 r	 x	2.262	1	1.7	 full
2	 T	2	176	 x	0	 r	 x	2.322	1	1.7	 full
2	 T	2	177	 L	0	 r	 x	1.56	1	 x	 half
2	 T	2	178	 x	0	 r	 x	1.563	1	1.7	 full
2	 T	2	179	 R	0	 r	 x	2.292	1	 x	 half
2	 T	2	180	 x	1	 l	 left	1.593	1	6	 full
2	 T	2	181	 x	0	 r	 x	2.521	1	1.7	 full
2	 T	2	182	 x	1	 l	 right	1.531	1	6	 full
2	 T	2	183	 x	0	 r	 x	1.511	1	6	 full
2	 T	2	184	 x	1	 l	 left	2.022	1	1.7	 full
2	 T	2	185	 x	1	 l	 right	1.581	1	1.7	 full
2	 T	2	186	 x	0	 r	 x	1.552	1	6	 full
2	 T	2	187	 L	0	 r	 x	1.531	1	 x	 half
2	 T	2	188	 x	0	 r	 x	1.53	1	6	 full
2	 T	2	189	 x	1	 l	 left	1.912	1	1.7	 full
2	 T	2	190	 x	1	 l	 left	1.829	1	1.7	 full
2	 T	2	191	 x	0	 r	 x	2.612	1	1.7	 full
2	 T	2	192	 x	0	 r	 x	1.491	1	6	 full
2	 T	2	193	 L	0	 r	 x	1.581	1	 x	 half
2	 T	2	194	 R	1	 l	 left	2.111	1	 x	 half
2	 T	2	195	 x	0	 r	 x	3.121	1	1.7	 full
2	 T	2	196	 L	0	 r	 x	2.389	1	 x	 half
2	 T	2	197	 x	0	 r	 x	2.922	1	1.7	 full
2	 T	2	198	 x	1	 l	 left	1.632	1	1.7	 full
2	 T	2	199	 x	1	 l	 right	1.801	1	1.7	 full
2	 T	2	200	 x	0	 r	 x	2.611	1	1.7	 full
2	 T	2	201	 L	0	 r	 x	1.561	1	 x	 half
2	 T	2	202	 x	1	 l	 left	1.65	1	1.7	 full
2	 T	2	203	 x	0	 r	 x	1.533	1	6	 full
2	 T	2	204	 x	0	 r	 x	2.25	1	1.7	 full
2	 T	2	205	 x	1	 l	 right	1.873	1	6	 full
2	 T	2	206	 L	0	 r	 x	2.471	1	 x	 half
2	 T	2	207	 R	0	 r	 x	2.543	1	 x	 half
2	 T	2	208	 x	0	 r	 x	2.85	1	1.7	 full
2	 T	2	209	 x	1	 l	 left	1.82	1	6	 full
2	 T	2	210	 L	1	 l	 left	1.571	1	 x	 half
2	 T	2	211	 L	1	 r	 right	2.571	0	 x	 half
2	 T	2	212	 L	1	 l	 left	1.911	1	 x	 half
2	 T	2	213	 x	0	 r	 x	2.581	1	1.7	 full
2	 T	2	214	 x	1	 l	 left	1.661	1	6	 full
2	 T	2	215	 x	0	 r	 x	2.73	1	1.7	 full
2	 T	2	216	 L	1	 l	 left	1.508	1	 x	 half
2	 T	2	217	 x	1	 l	 left	1.504	1	6	 full
2	 T	2	218	 x	1	 l	 left	2.53	1	1.7	 full
2	 T	2	219	 x	1	 l	 left	1.551	1	6	 full
2	 T	2	220	 x	1	 l	 left	1.51	1	6	 full
2	 T	2	221	 x	0	 r	 x	1.582	1	6	 full
2	 T	2	222	 x	0	 r	 x	2.58	1	1.7	 full
2	 T	2	223	 x	1	 l	 right	1.651	1	1.7	 full
2	 T	2	224	 L	0	 r	 x	3.023	1	 x	 half
2	 T	2	225	 R	0	 r	 x	2.952	1	 x	 half
2	 T	2	226	 R	1	 l	 right	1.651	1	 x	 half
2	 T	2	227	 x	0	 r	 x	1.661	1	6	 full
2	 T	2	228	 R	0	 r	 x	2.635	1	 x	 half
2	 T	2	229	 R	0	 r	 x	1.534	1	 x	 half
2	 T	2	230	 x	0	 r	 x	1.643	1	6	 full
2	 T	2	231	 x	0	 r	 x	1.581	1	6	 full
2	 T	2	232	 L	1	 l	 left	1.611	1	 x	 half
2	 T	2	233	 x	1	 l	 right	1.562	1	6	 full
2	 T	2	234	 L	0	 r	 x	2.443	1	 x	 half
2	 T	2	235	 x	1	 l	 left	1.701	1	1.7	 full
2	 T	2	236	 x	1	 l	 left	1.55	1	6	 full
2	 T	2	237	 L	1	 l	 right	1.781	1	 x	 half
2	 T	2	238	 x	1	 l	 left	1.611	1	6	 full
2	 T	2	239	 x	0	 r	 x	1.741	1	6	 full
2	 T	2	240	 x	0	 r	 x	1.462	1	6	 full
2	 N	1	1	 x	1	 l	 right	2.04	1	6	 full
2	 N	1	2	 x	0	 r	 x	4.462	1	1.7	 full
2	 N	1	3	 x	1	 l	 left	1.741	1	6	 full
2	 N	1	4	 x	1	 l	 left	3.323	1	1.7	 full
2	 N	1	5	 L	1	 l	 left	1.632	1	 x	 half
2	 N	1	6	 L	1	 l	 left	1.631	1	 x	 half
2	 N	1	7	 L	0	 r	 x	4.162	1	 x	 half
2	 N	1	8	 L	0	 r	 x	3.897	1	 x	 half
2	 N	1	9	 x	0	 r	 x	3.284	1	1.7	 full
2	 N	1	10	 x	1	 l	 left	2.921	1	1.7	 full
2	 N	1	11	 x	1	 l	 right	4.652	1	1.7	 full
2	 N	1	12	 R	0	 r	 x	4.162	1	 x	 half
2	 N	1	13	 x	1	 l	 left	1.831	1	6	 full
2	 N	1	14	 R	1	 l	 right	1.751	1	 x	 half
2	 N	1	15	 x	1	 l	 right	1.681	1	6	 full
2	 N	1	16	 x	1	 l	 left	3.795	1	1.7	 full
2	 N	1	17	 x	0	 r	 x	2.344	1	6	 full
2	 N	1	18	 x	1	 l	 left	3.337	1	1.7	 full
2	 N	1	19	 x	1	 l	 left	1.822	1	6	 full
2	 N	1	20	 R	1	 l	 left	2.357	1	 x	 half
2	 N	1	21	 R	1	 l	 right	1.721	1	 x	 half
2	 N	1	22	 x	1	 l	 left	2.151	1	1.7	 full
2	 N	1	23	 x	1	 l	 left	1.774	1	1.7	 full
2	 N	1	24	 x	0	 r	 x	2.168	1	6	 full
2	 N	1	25	 R	1	 l	 right	1.726	1	 x	 half
2	 N	1	26	 x	1	 l	 left	1.725	1	1.7	 full
2	 N	1	27	 L	0	 r	 x	4.232	1	 x	 half
2	 N	1	28	 x	1	 l	 right	1.761	1	1.7	 full
2	 N	1	29	 R	0	 r	 x	4.481	1	 x	 half
2	 N	1	30	 x	0	 r	 x	2.117	1	6	 full
2	 N	1	31	 x	1	 l	 left	2.226	1	1.7	 full
2	 N	1	32	 x	0	 r	 x	1.972	1	6	 full
2	 N	1	33	 x	1	 l	 left	1.547	1	6	 full
2	 N	1	34	 x	0	 r	 x	1.845	1	6	 full
2	 N	1	35	 x	0	 r	 x	1.861	1	6	 full
2	 N	1	36	 R	0	 r	 x	4.951	1	 x	 half
2	 N	1	37	 x	1	 l	 right	2.306	1	1.7	 full
2	 N	1	38	 x	0	 r	 x	1.712	1	6	 full
2	 N	1	39	 x	0	 r	 x	4.221	1	1.7	 full
2	 N	1	40	 x	1	 l	 right	1.742	1	6	 full
2	 N	1	41	 x	1	 l	 right	2.442	1	1.7	 full
2	 N	1	42	 R	0	 r	 x	4.547	1	 x	 half
2	 N	1	43	 R	1	 l	 right	1.74	1	 x	 half
2	 N	1	44	 x	1	 r	 right	4.272	0	1.7	 full
2	 N	1	45	 x	0	 r	 x	4.383	1	1.7	 full
2	 N	1	46	 R	1	 l	 right	1.621	1	 x	 half
2	 N	1	47	 L	1	 l	 left	1.591	1	 x	 half
2	 N	1	48	 x	1	 l	 left	2.031	1	1.7	 full
2	 N	1	49	 x	0	 r	 x	3.349	1	6	 full
2	 N	1	50	 R	0	 r	 x	3.632	1	 x	 half
2	 N	1	51	 x	0	 r	 x	4.366	1	1.7	 full
2	 N	1	52	 x	1	 r	 right	3.794	0	1.7	 full
2	 N	1	53	 x	0	 r	 x	4.171	1	1.7	 full
2	 N	1	54	 R	0	 r	 x	5.386	1	 x	 half
2	 N	1	55	 x	1	 l	 right	1.75	1	1.7	 full
2	 N	1	56	 x	0	 r	 x	1.862	1	6	 full
2	 N	1	57	 x	1	 l	 right	1.652	1	6	 full
2	 N	1	58	 x	1	 l	 right	1.721	1	6	 full
2	 N	1	59	 L	1	 l	 right	2.418	1	 x	 half
2	 N	1	60	 x	1	 l	 right	2.932	1	1.7	 full
2	 N	1	61	 L	0	 r	 x	3.844	1	 x	 half
2	 N	1	62	 x	0	 r	 x	1.752	1	6	 full
2	 N	1	63	 x	0	 r	 x	2.636	1	6	 full
2	 N	1	64	 x	1	 l	 left	1.641	1	6	 full
2	 N	1	65	 R	1	 l	 right	1.671	1	 x	 half
2	 N	1	66	 L	1	 l	 right	3.141	1	 x	 half
2	 N	1	67	 L	1	 l	 left	1.691	1	 x	 half
2	 N	1	68	 R	1	 l	 left	1.567	1	 x	 half
2	 N	1	69	 x	0	 r	 x	3.612	1	1.7	 full
2	 N	1	70	 x	0	 r	 x	1.811	1	6	 full
2	 N	1	71	 R	1	 l	 right	1.541	1	 x	 half
2	 N	1	72	 L	0	 r	 x	3.381	1	 x	 half
2	 N	1	73	 L	1	 l	 left	1.682	1	 x	 half
2	 N	1	74	 L	0	 r	 x	3.24	1	 x	 half
2	 N	1	75	 L	0	 r	 x	3.631	1	 x	 half
2	 N	1	76	 R	1	 l	 left	3.084	1	 x	 half
2	 N	1	77	 x	1	 l	 left	1.555	1	6	 full
2	 N	1	78	 x	0	 r	 x	1.752	1	6	 full
2	 N	1	79	 R	0	 r	 x	3.922	1	 x	 half
2	 N	1	80	 x	1	 l	 left	1.508	1	6	 full
2	 N	1	81	 L	1	 l	 left	1.569	1	 x	 half
2	 N	1	82	 L	0	 r	 x	4.382	1	 x	 half
2	 N	1	83	 R	0	 r	 x	4.492	1	 x	 half
2	 N	1	84	 x	1	 l	 right	1.769	1	1.7	 full
2	 N	1	85	 x	0	 r	 x	3.192	1	1.7	 full
2	 N	1	86	 R	0	 r	 x	4.481	1	 x	 half
2	 N	1	87	 R	1	 l	 right	1.64	1	 x	 half
2	 N	1	88	 x	0	 r	 x	3.782	1	1.7	 full
2	 N	1	89	 x	0	 r	 x	1.773	1	6	 full
2	 N	1	90	 x	1	 l	 right	1.682	1	6	 full
2	 N	1	91	 L	1	 l	 left	1.581	1	 x	 half
2	 N	1	92	 x	1	 l	 left	1.541	1	6	 full
2	 N	1	93	 R	0	 r	 x	3.312	1	 x	 half
2	 N	1	94	 x	0	 r	 x	1.862	1	6	 full
2	 N	1	95	 x	0	 r	 x	1.562	1	6	 full
2	 N	1	96	 L	1	 l	 right	2.521	1	 x	 half
2	 N	1	97	 x	1	 l	 right	2.03	1	1.7	 full
2	 N	1	98	 L	1	 l	 right	1.702	1	 x	 half
2	 N	1	99	 x	1	 l	 left	1.611	1	6	 full
2	 N	1	100	 x	1	 l	 left	1.474	1	6	 full
2	 N	1	101	 x	0	 r	 x	5.801	1	1.7	 full
2	 N	1	102	 x	0	 r	 x	3.811	1	1.7	 full
2	 N	1	103	 x	1	 l	 left	1.789	1	6	 full
2	 N	1	104	 x	1	 l	 right	1.642	1	6	 full
2	 N	1	105	 x	1	 l	 left	2.642	1	1.7	 full
2	 N	1	106	 L	0	 r	 x	3.432	1	 x	 half
2	 N	1	107	 x	1	 l	 left	1.536	1	6	 full
2	 N	1	108	 R	0	 r	 x	3.656	1	 x	 half
2	 N	1	109	 L	1	 l	 right	1.981	1	 x	 half
2	 N	1	110	 x	0	 r	 x	1.571	1	6	 full
2	 N	1	111	 x	0	 r	 x	5.328	1	1.7	 full
2	 N	1	112	 x	1	 l	 right	2.894	1	1.7	 full
2	 N	1	113	 x	0	 r	 x	1.702	1	6	 full
2	 N	1	114	 x	0	 r	 x	4.966	1	1.7	 full
2	 N	1	115	 x	0	 r	 x	5.302	1	1.7	 full
2	 N	1	116	 x	0	 r	 x	1.691	1	6	 full
2	 N	1	117	 x	0	 r	 x	2.192	1	6	 full
2	 N	1	118	 x	1	 l	 left	1.964	1	1.7	 full
2	 N	1	119	 x	1	 l	 right	1.891	1	6	 full
2	 N	1	120	 x	1	 l	 left	1.632	1	6	 full
2	 N	1	121	 x	1	 l	 right	1.7	1	1.7	 full
2	 N	1	122	 x	0	 r	 x	1.662	1	6	 full
2	 N	1	123	 x	1	 l	 right	1.702	1	6	 full
2	 N	1	124	 R	1	 l	 right	1.592	1	 x	 half
2	 N	1	125	 R	0	 r	 x	4.491	1	 x	 half
2	 N	1	126	 x	0	 r	 x	1.968	1	6	 full
2	 N	1	127	 x	1	 l	 left	1.617	1	6	 full
2	 N	1	128	 x	0	 r	 x	1.571	1	6	 full
2	 N	1	129	 x	0	 r	 x	4.871	1	1.7	 full
2	 N	1	130	 R	1	 l	 right	1.64	1	 x	 half
2	 N	1	131	 x	0	 r	 x	6.992	1	1.7	 full
2	 N	1	132	 x	1	 l	 left	1.611	1	6	 full
2	 N	1	133	 x	0	 r	 x	4.816	1	1.7	 full
2	 N	1	134	 x	1	 l	 right	1.791	1	1.7	 full
2	 N	1	135	 x	1	 l	 right	1.741	1	1.7	 full
2	 N	1	136	 x	1	 l	 left	1.601	1	1.7	 full
2	 N	1	137	 L	1	 l	 left	1.672	1	 x	 half
2	 N	1	138	 x	0	 r	 x	1.533	1	6	 full
2	 N	1	139	 R	1	 l	 left	1.769	1	 x	 half
2	 N	1	140	 x	1	 l	 right	1.512	1	6	 full
2	 N	1	141	 x	0	 r	 x	5.122	1	1.7	 full
2	 N	1	142	 R	0	 r	 x	4.361	1	 x	 half
2	 N	1	143	 x	1	 l	 right	1.623	1	6	 full
2	 N	1	144	 x	1	 l	 right	1.551	1	6	 full
2	 N	1	145	 x	0	 r	 x	7.213	1	1.7	 full
2	 N	1	146	 x	0	 r	 x	1.931	1	6	 full
2	 N	1	147	 x	1	 l	 left	1.582	1	6	 full
2	 N	1	148	 x	1	 l	 left	1.471	1	6	 full
2	 N	1	149	 x	0	 r	 x	4.601	1	1.7	 full
2	 N	1	150	 x	0	 r	 x	1.632	1	6	 full
2	 N	1	151	 L	0	 r	 x	4.721	1	 x	 half
2	 N	1	152	 x	1	 l	 right	2.091	1	6	 full
2	 N	1	153	 L	1	 l	 right	1.942	1	 x	 half
2	 N	1	154	 x	0	 r	 x	1.705	1	6	 full
2	 N	1	155	 x	0	 r	 x	6.112	1	1.7	 full
2	 N	1	156	 x	1	 l	 left	1.688	1	1.7	 full
2	 N	1	157	 x	1	 l	 right	1.626	1	1.7	 full
2	 N	1	158	 x	1	 l	 right	1.611	1	6	 full
2	 N	1	159	 x	0	 r	 x	5.21	1	1.7	 full
2	 N	1	160	 x	0	 r	 x	1.613	1	6	 full
2	 N	1	161	 L	0	 r	 x	3.202	1	 x	 half
2	 N	1	162	 x	1	 l	 left	2.112	1	1.7	 full
2	 N	1	163	 L	1	 l	 left	1.541	1	 x	 half
2	 N	1	164	 L	1	 l	 left	1.571	1	 x	 half
2	 N	1	165	 L	1	 l	 right	2.381	1	 x	 half
2	 N	1	166	 L	0	 r	 x	4.061	1	 x	 half
2	 N	1	167	 x	1	 l	 right	1.811	1	6	 full
2	 N	1	168	 x	1	 l	 left	1.519	1	6	 full
2	 N	1	169	 R	0	 r	 x	3.221	1	 x	 half
2	 N	1	170	 x	0	 r	 x	1.809	1	6	 full
2	 N	1	171	 L	0	 r	 x	4.152	1	 x	 half
2	 N	1	172	 L	1	 l	 left	1.605	1	 x	 half
2	 N	1	173	 x	0	 r	 x	4.063	1	1.7	 full
2	 N	1	174	 x	0	 r	 x	4.691	1	1.7	 full
2	 N	1	175	 x	0	 r	 x	3.951	1	1.7	 full
2	 N	1	176	 x	0	 r	 x	4.412	1	1.7	 full
2	 N	1	177	 x	0	 r	 x	5.152	1	1.7	 full
2	 N	1	178	 x	1	 l	 right	2.371	1	1.7	 full
2	 N	1	179	 x	0	 r	 x	4.33	1	1.7	 full
2	 N	1	180	 x	1	 l	 right	1.642	1	6	 full
2	 N	1	181	 x	1	 l	 left	3.551	1	1.7	 full
2	 N	1	182	 L	1	 l	 right	4.401	1	 x	 half
2	 N	1	183	 L	1	 l	 left	1.654	1	 x	 half
2	 N	1	184	 L	0	 r	 x	2.762	1	 x	 half
2	 N	1	185	 R	0	 r	 x	5.512	1	 x	 half
2	 N	1	186	 L	0	 r	 x	3.381	1	 x	 half
2	 N	1	187	 L	0	 r	 x	3.631	1	 x	 half
2	 N	1	188	 x	0	 r	 x	1.883	1	6	 full
2	 N	1	189	 x	0	 r	 x	1.591	1	6	 full
2	 N	1	190	 L	0	 r	 x	3.462	1	 x	 half
2	 N	1	191	 x	0	 r	 x	1.642	1	6	 full
2	 N	1	192	 R	1	 l	 left	3.112	1	 x	 half
2	 N	1	193	 L	1	 l	 left	1.787	1	 x	 half
2	 N	1	194	 x	0	 r	 x	6.223	1	1.7	 full
2	 N	1	195	 x	1	 l	 left	1.822	1	1.7	 full
2	 N	1	196	 x	0	 r	 x	4.751	1	1.7	 full
2	 N	1	197	 x	0	 r	 x	4.822	1	1.7	 full
2	 N	1	198	 x	1	 l	 left	1.543	1	6	 full
2	 N	1	199	 x	0	 r	 x	4.532	1	1.7	 full
2	 N	1	200	 L	0	 r	 x	3.771	1	 x	 half
2	 N	1	201	 R	0	 r	 x	3.962	1	 x	 half
2	 N	1	202	 x	0	 r	 x	4.962	1	1.7	 full
2	 N	1	203	 x	1	 l	 right	1.591	1	6	 full
2	 N	1	204	 L	0	 r	 x	4.241	1	 x	 half
2	 N	1	205	 x	1	 l	 left	1.791	1	1.7	 full
2	 N	1	206	 x	0	 r	 x	4.621	1	1.7	 full
2	 N	1	207	 x	1	 l	 right	1.863	1	1.7	 full
2	 N	1	208	 R	1	 l	 left	2.734	1	 x	 half
2	 N	1	209	 x	0	 r	 x	1.675	1	6	 full
2	 N	1	210	 R	0	 r	 x	4.021	1	 x	 half
2	 N	1	211	 L	0	 r	 x	3.634	1	 x	 half
2	 N	1	212	 x	1	 l	 right	4.051	1	1.7	 full
2	 N	1	213	 x	0	 r	 x	1.672	1	6	 full
2	 N	1	214	 x	1	 l	 right	1.681	1	6	 full
2	 N	1	215	 x	0	 r	 x	4.311	1	1.7	 full
2	 N	1	216	 x	1	 l	 left	1.761	1	1.7	 full
2	 N	1	217	 R	1	 l	 right	1.582	1	 x	 half
2	 N	1	218	 x	0	 r	 x	5.41	1	1.7	 full
2	 N	1	219	 x	1	 l	 left	2.49	1	1.7	 full
2	 N	1	220	 L	0	 r	 x	3.192	1	 x	 half
2	 N	1	221	 x	0	 r	 x	1.71	1	6	 full
2	 N	1	222	 x	1	 r	 left	4.139	0	1.7	 full
2	 N	1	223	 x	0	 r	 x	4.991	1	1.7	 full
2	 N	1	224	 L	1	 l	 right	1.912	1	 x	 half
2	 N	1	225	 x	1	 l	 right	1.64	1	1.7	 full
2	 N	1	226	 x	1	 l	 right	1.651	1	1.7	 full
2	 N	1	227	 x	0	 r	 x	1.773	1	6	 full
2	 N	1	228	 R	0	 r	 x	4.076	1	 x	 half
2	 N	1	229	 x	0	 r	 x	1.752	1	6	 full
2	 N	1	230	 R	0	 r	 x	3.431	1	 x	 half
2	 N	1	231	 x	0	 r	 x	1.821	1	6	 full
2	 N	1	232	 x	0	 r	 x	4.272	1	1.7	 full
2	 N	1	233	 x	1	 l	 right	1.621	1	6	 full
2	 N	1	234	 x	0	 r	 x	3.591	1	1.7	 full
2	 N	1	235	 x	0	 r	 x	6.052	1	1.7	 full
2	 N	1	236	 x	1	 l	 left	1.621	1	6	 full
2	 N	1	237	 L	1	 l	 left	1.582	1	 x	 half
2	 N	1	238	 x	0	 r	 x	1.611	1	6	 full
2	 N	1	239	 x	1	 l	 right	1.523	1	6	 full
2	 N	1	240	 x	0	 r	 x	1.571	1	6	 full
3	 T	1	1	 x	0	 r	 x	2.285	1	6	 full
3	 T	1	2	 R	0	 r	 x	4.527	1	 x	 half
3	 T	1	3	 x	1	 r	 left	3.742	0	1.7	 full
3	 T	1	4	 L	1	 l	 left	1.998	1	 x	 half
3	 T	1	5	 x	0	 r	 x	3.635	1	1.7	 full
3	 T	1	6	 x	1	 l	 right	2.189	1	6	 full
3	 T	1	7	 R	1	 l	 right	1.859	1	 x	 half
3	 T	1	8	 x	0	 r	 x	3.656	1	1.7	 full
3	 T	1	9	 x	1	 l	 left	1.78	1	6	 full
3	 T	1	10	 x	1	 l	 left	1.858	1	6	 full
3	 T	1	11	 x	0	 r	 x	3.126	1	6	 full
3	 T	1	12	 R	1	 l	 right	1.767	1	 x	 half
3	 T	1	13	 x	0	 r	 x	2.788	1	6	 full
3	 T	1	14	 L	0	 r	 x	4.466	1	 x	 half
3	 T	1	15	 R	0	 r	 x	4.286	1	 x	 half
3	 T	1	16	 R	1	 r	 left	3.878	0	 x	 half
3	 T	1	17	 x	0	 r	 x	2.618	1	6	 full
3	 T	1	18	 x	1	 r	 left	4.196	0	1.7	 full
3	 T	1	19	 x	0	 r	 x	2.909	1	6	 full
3	 T	1	20	 L	1	 l	 left	2.09	1	 x	 half
3	 T	1	21	 L	0	 r	 x	4.197	1	 x	 half
3	 T	1	22	 x	1	 r	 right	3.603	0	1.7	 full
3	 T	1	23	 x	0	 r	 x	3.927	1	6	 full
3	 T	1	24	 x	1	 l	 right	3.794	1	1.7	 full
3	 T	1	25	 L	1	 l	 left	2.219	1	 x	 half
3	 T	1	26	 R	0	 r	 x	4.075	1	 x	 half
3	 T	1	27	 x	0	 r	 x	4.706	1	6	 full
3	 T	1	28	 L	0	 r	 x	3.678	1	 x	 half
3	 T	1	29	 x	1	 l	 left	1.839	1	6	 full
3	 T	1	30	 x	1	 l	 left	1.739	1	6	 full
3	 T	1	31	 x	0	 r	 x	3.658	1	1.7	 full
3	 T	1	32	 x	1	 l	 right	2.098	1	6	 full
3	 T	1	33	 x	0	 r	 x	3.697	1	6	 full
3	 T	1	34	 x	0	 r	 x	3.637	1	6	 full
3	 T	1	35	 x	0	 r	 x	3.029	1	1.7	 full
3	 T	1	36	 L	1	 l	 left	2.378	1	 x	 half
3	 T	1	37	 x	0	 r	 x	2.378	1	6	 full
3	 T	1	38	 x	0	 r	 x	2.699	1	6	 full
3	 T	1	39	 R	0	 r	 x	3.208	1	 x	 half
3	 T	1	40	 x	1	 l	 right	1.913	1	6	 full
3	 T	1	41	 x	0	 r	 x	2.507	1	6	 full
3	 T	1	42	 x	1	 l	 left	1.647	1	6	 full
3	 T	1	43	 x	0	 r	 x	3.028	1	1.7	 full
3	 T	1	44	 x	1	 l	 left	1.73	1	6	 full
3	 T	1	45	 x	0	 r	 x	3.677	1	1.7	 full
3	 T	1	46	 x	0	 r	 x	2.187	1	6	 full
3	 T	1	47	 x	0	 r	 x	2.759	1	6	 full
3	 T	1	48	 x	0	 r	 x	2.768	1	6	 full
3	 T	1	49	 L	0	 r	 x	2.258	1	 x	 half
3	 T	1	50	 x	1	 l	 right	2.259	1	1.7	 full
3	 T	1	51	 L	1	 l	 left	1.638	1	 x	 half
3	 T	1	52	 x	0	 l	 x	3.189	0	1.7	 full
3	 T	1	53	 x	1	 r	 left	3.268	0	1.7	 full
3	 T	1	54	 x	1	 l	 left	3.478	1	1.7	 full
3	 T	1	55	 x	1	 l	 left	4.016	1	1.7	 full
3	 T	1	56	 L	0	 l	 x	1.989	0	 x	 half
3	 T	1	57	 L	0	 r	 x	3.647	1	 x	 half
3	 T	1	58	 R	0	 r	 x	3.656	1	 x	 half
3	 T	1	59	 L	0	 r	 x	3.651	1	 x	 half
3	 T	1	60	 x	1	 l	 left	1.804	1	6	 full
3	 T	1	61	 R	1	 l	 left	1.649	1	 x	 half
3	 T	1	62	 L	1	 r	 right	3.388	0	 x	 half
3	 T	1	63	 x	1	 l	 left	1.58	1	6	 full
3	 T	1	64	 x	0	 r	 x	3.567	1	1.7	 full
3	 T	1	65	 x	1	 r	 left	2.978	0	1.7	 full
3	 T	1	66	 x	1	 l	 left	1.839	1	6	 full
3	 T	1	67	 x	1	 l	 left	1.567	1	6	 full
3	 T	1	68	 x	1	 r	 left	3.547	0	1.7	 full
3	 T	1	69	 R	0	 r	 x	3.577	1	 x	 half
3	 T	1	70	 R	1	 r	 left	3.607	0	 x	 half
3	 T	1	71	 R	0	 r	 x	3.786	1	 x	 half
3	 T	1	72	 x	0	 r	 x	2.177	1	6	 full
3	 T	1	73	 x	0	 r	 x	2.349	1	6	 full
3	 T	1	74	 x	0	 r	 x	3.937	1	1.7	 full
3	 T	1	75	 x	0	 r	 x	2.397	1	6	 full
3	 T	1	76	 x	0	 r	 x	2.957	1	1.7	 full
3	 T	1	77	 R	0	 r	 x	3.168	1	 x	 half
3	 T	1	78	 x	0	 r	 x	2.048	1	6	 full
3	 T	1	79	 x	0	 r	 x	3.028	1	1.7	 full
3	 T	1	80	 x	1	 l	 right	2.938	1	1.7	 full
3	 T	1	81	 x	0	 r	 x	3.847	1	1.7	 full
3	 T	1	82	 L	1	 r	 right	3.697	0	 x	 half
3	 T	1	83	 L	1	 l	 left	1.719	1	 x	 half
3	 T	1	84	 R	1	 l	 right	1.668	1	 x	 half
3	 T	1	85	 x	0	 r	 x	3.615	1	1.7	 full
3	 T	1	86	 x	1	 l	 right	1.59	1	6	 full
3	 T	1	87	 x	1	 r	 right	3.616	0	1.7	 full
3	 T	1	88	 x	0	 r	 x	2.159	1	6	 full
3	 T	1	89	 R	1	 l	 right	1.689	1	 x	 half
3	 T	1	90	 x	0	 r	 x	1.749	1	6	 full
3	 T	1	91	 R	0	 r	 x	3.297	1	 x	 half
3	 T	1	92	 x	0	 r	 x	2.999	1	1.7	 full
3	 T	1	93	 R	1	 l	 right	1.569	1	 x	 half
3	 T	1	94	 x	0	 r	 x	1.649	1	6	 full
3	 T	1	95	 x	0	 r	 x	1.927	1	6	 full
3	 T	1	96	 x	0	 r	 x	2.988	1	6	 full
3	 T	1	97	 R	1	 l	 right	1.649	1	 x	 half
3	 T	1	98	 x	0	 r	 x	3.876	1	1.7	 full
3	 T	1	99	 L	1	 r	 right	3.717	0	 x	 half
3	 T	1	100	 R	1	 l	 left	3.131	1	 x	 half
3	 T	1	101	 x	1	 l	 left	1.778	1	6	 full
3	 T	1	102	 x	0	 r	 x	1.959	1	6	 full
3	 T	1	103	 x	0	 r	 x	3.717	1	1.7	 full
3	 T	1	104	 x	1	 r	 right	3.757	0	1.7	 full
3	 T	1	105	 R	0	 r	 x	3.611	1	 x	 half
3	 T	1	106	 L	1	 r	 right	4.018	0	 x	 half
3	 T	1	107	 L	1	 r	 right	3.652	0	 x	 half
3	 T	1	108	 x	0	 l	 x	3.378	0	1.7	 full
3	 T	1	109	 x	0	 r	 x	3.549	1	1.7	 full
3	 T	1	110	 x	1	 l	 right	1.808	1	6	 full
3	 T	1	111	 x	0	 r	 x	3.745	1	1.7	 full
3	 T	1	112	 L	0	 r	 x	3.447	1	 x	 half
3	 T	1	113	 L	0	 r	 x	3.367	1	 x	 half
3	 T	1	114	 L	0	 r	 x	3.837	1	 x	 half
3	 T	1	115	 x	1	 l	 right	1.789	1	6	 full
3	 T	1	116	 x	1	 l	 right	1.609	1	6	 full
3	 T	1	117	 x	0	 r	 x	2.568	1	6	 full
3	 T	1	118	 x	0	 r	 x	3.687	1	1.7	 full
3	 T	1	119	 x	0	 r	 x	1.728	1	6	 full
3	 T	1	120	 L	0	 r	 x	2.444	1	 x	 half
3	 T	1	121	 x	1	 l	 left	1.84	1	1.7	 full
3	 T	1	122	 x	1	 l	 left	1.779	1	6	 full
3	 T	1	123	 x	1	 l	 right	1.524	1	6	 full
3	 T	1	124	 x	1	 l	 right	1.608	1	6	 full
3	 T	1	125	 L	0	 r	 x	3.998	1	 x	 half
3	 T	1	126	 L	1	 l	 left	1.587	1	 x	 half
3	 T	1	127	 x	0	 r	 x	3.786	1	1.7	 full
3	 T	1	128	 x	1	 l	 right	1.498	1	6	 full
3	 T	1	129	 x	1	 r	 right	3.647	0	1.7	 full
3	 T	1	130	 L	1	 l	 right	2.958	1	 x	 half
3	 T	1	131	 x	0	 r	 x	3.566	1	1.7	 full
3	 T	1	132	 x	0	 r	 x	1.893	1	6	 full
3	 T	1	133	 x	1	 l	 right	1.509	1	6	 full
3	 T	1	134	 x	0	 r	 x	1.719	1	6	 full
3	 T	1	135	 x	1	 l	 right	1.668	1	6	 full
3	 T	1	136	 R	1	 l	 right	1.878	1	 x	 half
3	 T	1	137	 x	0	 r	 x	2.398	1	1.7	 full
3	 T	1	138	 x	1	 l	 left	1.529	1	6	 full
3	 T	1	139	 L	1	 l	 left	1.528	1	 x	 half
3	 T	1	140	 x	0	 r	 x	3.058	1	1.7	 full
3	 T	1	141	 L	1	 l	 left	1.69	1	 x	 half
3	 T	1	142	 x	1	 r	 right	2.757	0	1.7	 full
3	 T	1	143	 x	1	 l	 right	1.548	1	6	 full
3	 T	1	144	 x	0	 r	 x	3.018	1	1.7	 full
3	 T	1	145	 R	0	 r	 x	2.654	1	 x	 half
3	 T	1	146	 x	1	 l	 right	1.689	1	1.7	 full
3	 T	1	147	 x	1	 l	 left	1.498	1	6	 full
3	 T	1	148	 L	0	 r	 x	3.108	1	 x	 half
3	 T	1	149	 x	1	 l	 left	2.18	1	1.7	 full
3	 T	1	150	 x	0	 r	 x	1.868	1	6	 full
3	 T	1	151	 L	1	 r	 right	2.135	0	 x	 half
3	 T	1	152	 x	1	 r	 right	3.815	0	1.7	 full
3	 T	1	153	 R	0	 r	 x	3.498	1	 x	 half
3	 T	1	154	 R	1	 l	 right	1.508	1	 x	 half
3	 T	1	155	 x	0	 r	 x	2.699	1	1.7	 full
3	 T	1	156	 x	1	 r	 right	2.538	0	1.7	 full
3	 T	1	157	 R	0	 r	 x	2.619	1	 x	 half
3	 T	1	158	 x	1	 r	 right	2.328	0	1.7	 full
3	 T	1	159	 L	1	 l	 left	1.629	1	 x	 half
3	 T	1	160	 L	1	 l	 left	1.586	1	 x	 half
3	 T	1	161	 R	0	 l	 x	3.037	0	 x	 half
3	 T	1	162	 x	0	 r	 x	3.618	1	1.7	 full
3	 T	1	163	 L	0	 r	 x	2.699	1	 x	 half
3	 T	1	164	 L	0	 r	 x	2.387	1	 x	 half
3	 T	1	165	 L	1	 l	 left	1.459	1	 x	 half
3	 T	1	166	 x	1	 r	 left	3.488	0	1.7	 full
3	 T	1	167	 x	1	 l	 right	2.089	1	1.7	 full
3	 T	1	168	 R	1	 l	 right	1.469	1	 x	 half
3	 T	1	169	 x	0	 r	 x	1.679	1	6	 full
3	 T	1	170	 x	0	 r	 x	3.647	1	1.7	 full
3	 T	1	171	 x	1	 l	 left	1.87	1	1.7	 full
3	 T	1	172	 x	1	 l	 left	3.497	1	1.7	 full
3	 T	1	173	 x	1	 l	 right	1.458	1	6	 full
3	 T	1	174	 x	1	 l	 left	1.925	1	1.7	 full
3	 T	1	175	 x	0	 r	 x	3.507	1	1.7	 full
3	 T	1	176	 x	0	 r	 x	3.136	1	1.7	 full
3	 T	1	177	 x	0	 r	 x	1.84	1	6	 full
3	 T	1	178	 x	1	 r	 left	3.368	0	1.7	 full
3	 T	1	179	 x	0	 r	 x	1.77	1	6	 full
3	 T	1	180	 x	0	 l	 x	2.507	0	1.7	 full
3	 T	1	181	 x	0	 r	 x	3.469	1	1.7	 full
3	 T	1	182	 L	1	 l	 right	3.517	1	 x	 half
3	 T	1	183	 x	1	 l	 left	1.713	1	6	 full
3	 T	1	184	 x	1	 l	 left	1.479	1	6	 full
3	 T	1	185	 x	1	 l	 left	2.978	1	1.7	 full
3	 T	1	186	 R	0	 l	 x	1.918	0	 x	 half
3	 T	1	187	 x	1	 l	 left	1.6	1	1.7	 full
3	 T	1	188	 L	1	 l	 right	2.334	1	 x	 half
3	 T	1	189	 x	1	 l	 left	1.738	1	1.7	 full
3	 T	1	190	 x	1	 x	 right	1.358	1	1.7	 full
3	 T	1	191	 x	1	 l	 right	1.627	1	6	 full
3	 T	1	192	 x	0	 r	 x	2.359	1	1.7	 full
3	 T	1	193	 x	1	 r	 right	2.538	0	1.7	 full
3	 T	1	194	 L	0	 r	 x	3.728	1	 x	 half
3	 T	1	195	 x	1	 l	 right	1.499	1	6	 full
3	 T	1	196	 R	1	 l	 left	2.098	1	 x	 half
3	 T	1	197	 x	0	 r	 x	1.855	1	6	 full
3	 T	1	198	 x	1	 l	 left	1.637	1	6	 full
3	 T	1	199	 x	0	 r	 x	2.019	1	1.7	 full
3	 T	1	200	 x	1	 l	 right	1.659	1	1.7	 full
3	 T	1	201	 x	0	 r	 x	1.759	1	6	 full
3	 T	1	202	 x	1	 l	 left	1.948	1	1.7	 full
3	 T	1	203	 x	1	 l	 right	1.51	1	6	 full
3	 T	1	204	 R	0	 l	 x	2	0	 x	 half
3	 T	1	205	 x	0	 l	 x	1.879	0	1.7	 full
3	 T	1	206	 R	1	 r	 left	2.399	0	 x	 half
3	 T	1	207	 L	0	 r	 x	3.666	1	 x	 half
3	 T	1	208	 x	0	 r	 x	3.668	1	1.7	 full
3	 T	1	209	 L	0	 r	 x	2.858	1	 x	 half
3	 T	1	210	 x	1	 l	 right	1.498	1	6	 full
3	 T	1	211	 x	0	 l	 x	0.557	0	6	 full
3	 T	1	212	 R	0	 r	 x	3.096	1	 x	 half
3	 T	1	213	 L	1	 l	 left	1.528	1	 x	 half
3	 T	1	214	 L	0	 r	 x	2.579	1	 x	 half
3	 T	1	215	 R	0	 r	 x	4.576	1	 x	 half
3	 T	1	216	 x	1	 l	 left	1.749	1	1.7	 full
3	 T	1	217	 L	1	 l	 left	1.513	1	 x	 half
3	 T	1	218	 x	0	 r	 x	1.929	1	6	 full
3	 T	1	219	 x	1	 l	 right	2.244	1	1.7	 full
3	 T	1	220	 x	0	 r	 x	1.52	1	6	 full
3	 T	1	221	 x	1	 l	 right	1.699	1	6	 full
3	 T	1	222	 x	0	 r	 x	3.509	1	1.7	 full
3	 T	1	223	 x	1	 l	 right	1.61	1	1.7	 full
3	 T	1	224	 x	1	 r	 right	2.779	0	1.7	 full
3	 T	1	225	 x	0	 r	 x	2.408	1	1.7	 full
3	 T	1	226	 L	0	 r	 x	2.18	1	 x	 half
3	 T	1	227	 x	0	 r	 x	1.91	1	1.7	 full
3	 T	1	228	 x	0	 r	 x	2.079	1	1.7	 full
3	 T	1	229	 x	1	 l	 left	1.529	1	6	 full
3	 T	1	230	 x	1	 l	 left	1.45	1	6	 full
3	 T	1	231	 x	1	 r	 left	2.419	0	1.7	 full
3	 T	1	232	 R	0	 x	 x	3.198	1	 x	 half
3	 T	1	233	 R	1	 l	 right	1.507	1	 x	 half
3	 T	1	234	 x	0	 r	 x	1.92	1	6	 full
3	 T	1	235	 x	1	 l	 left	1.55	1	6	 full
3	 T	1	236	 L	0	 r	 x	1.959	1	 x	 half
3	 T	1	237	 x	0	 r	 x	1.679	1	6	 full
3	 T	1	238	 R	1	 l	 right	1.47	1	 x	 half
3	 T	1	239	 x	1	 l	 right	1.919	1	1.7	 full
3	 T	1	240	 x	1	 l	 right	1.43	1	6	 full
3	 N	2	1	 x	0	 r	 x	3.396	1	1.7	 full
3	 N	2	2	 x	0	 r	 x	1.689	1	6	 full
3	 N	2	3	 x	0	 r	 x	2.059	1	1.7	 full
3	 N	2	4	 x	1	 r	 right	2.064	0	1.7	 full
3	 N	2	5	 x	1	 l	 left	1.496	1	6	 full
3	 N	2	6	 R	0	 r	 x	2.119	1	 x	 half
3	 N	2	7	 L	1	 l	 left	1.559	1	 x	 half
3	 N	2	8	 x	0	 r	 x	1.68	1	6	 full
3	 N	2	9	 x	0	 r	 x	1.79	1	6	 full
3	 N	2	10	 L	1	 l	 left	1.519	1	 x	 half
3	 N	2	11	 L	1	 r	 right	1.699	0	 x	 half
3	 N	2	12	 x	1	 r	 left	1.909	0	1.7	 full
3	 N	2	13	 R	1	 r	 left	2.51	0	 x	 half
3	 N	2	14	 R	1	 l	 left	4.147	1	 x	 half
3	 N	2	15	 x	0	 r	 x	1.767	1	6	 full
3	 N	2	16	 x	1	 r	 right	1.498	0	6	 full
3	 N	2	17	 x	0	 r	 x	8.502	1	1.7	 full
3	 N	2	18	 R	1	 l	 right	1.68	1	 x	 half
3	 N	2	19	 x	1	 l	 left	1.689	1	1.7	 full
3	 N	2	20	 x	1	 l	 right	1.62	1	6	 full
3	 N	2	21	 L	0	 r	 x	2.318	1	 x	 half
3	 N	2	22	 L	1	 r	 right	1.859	0	 x	 half
3	 N	2	23	 L	1	 l	 left	1.53	1	 x	 half
3	 N	2	24	 x	1	 l	 right	1.629	1	1.7	 full
3	 N	2	25	 L	0	 r	 x	1.998	1	 x	 half
3	 N	2	26	 x	1	 r	 left	2.088	0	1.7	 full
3	 N	2	27	 x	0	 r	 x	6.165	1	1.7	 full
3	 N	2	28	 R	1	 r	 left	3.408	0	 x	 half
3	 N	2	29	 R	0	 r	 x	7.452	1	 x	 half
3	 N	2	30	 x	0	 r	 x	6.289	1	1.7	 full
3	 N	2	31	 R	0	 r	 x	2.85	1	 x	 half
3	 N	2	32	 x	1	 r	 right	5.5	0	1.7	 full
3	 N	2	33	 x	0	 l	 x	3.898	0	1.7	 full
3	 N	2	34	 L	0	 x	 x	2.718	1	 x	 half
3	 N	2	35	 L	0	 r	 x	9.061	1	 x	 half
3	 N	2	36	 L	0	 r	 x	4.917	1	 x	 half
3	 N	2	37	 x	0	 r	 x	4.296	1	1.7	 full
3	 N	2	38	 R	1	 l	 right	1.599	1	 x	 half
3	 N	2	39	 x	0	 r	 x	1.979	1	6	 full
3	 N	2	40	 x	1	 l	 left	1.609	1	6	 full
3	 N	2	41	 x	0	 r	 x	1.828	1	1.7	 full
3	 N	2	42	 L	0	 r	 x	2.039	1	 x	 half
3	 N	2	43	 x	0	 r	 x	1.788	1	6	 full
3	 N	2	44	 L	1	 l	 right	5.787	1	 x	 half
3	 N	2	45	 x	1	 l	 left	3.087	1	1.7	 full
3	 N	2	46	 x	0	 r	 x	1.715	1	6	 full
3	 N	2	47	 x	0	 l	 x	4.167	0	1.7	 full
3	 N	2	48	 L	1	 l	 left	1.657	1	 x	 half
3	 N	2	49	 L	0	 r	 x	4.455	1	 x	 half
3	 N	2	50	 x	0	 r	 x	1.718	1	6	 full
3	 N	2	51	 x	0	 l	 x	4.016	0	1.7	 full
3	 N	2	52	 L	1	 l	 left	1.532	1	 x	 half
3	 N	2	53	 R	1	 l	 right	1.549	1	 x	 half
3	 N	2	54	 R	0	 r	 x	3.627	1	 x	 half
3	 N	2	55	 x	0	 r	 x	4.935	1	1.7	 full
3	 N	2	56	 x	1	 r	 right	4.227	0	1.7	 full
3	 N	2	57	 L	0	 r	 x	5.054	1	 x	 half
3	 N	2	58	 x	0	 r	 x	1.783	1	6	 full
3	 N	2	59	 L	0	 r	 x	3.811	1	 x	 half
3	 N	2	60	 x	1	 l	 right	1.64	1	6	 full
3	 N	2	61	 L	0	 r	 x	5.924	1	 x	 half
3	 N	2	62	 x	1	 l	 right	1.959	1	6	 full
3	 N	2	63	 x	1	 l	 right	2.001	1	1.7	 full
3	 N	2	64	 L	0	 l	 x	3.747	0	 x	 half
3	 N	2	65	 x	0	 r	 x	1.791	1	6	 full
3	 N	2	66	 x	0	 r	 x	1.801	1	6	 full
3	 N	2	67	 x	1	 l	 right	1.489	1	6	 full
3	 N	2	68	 x	1	 l	 left	1.499	1	6	 full
3	 N	2	69	 R	0	 r	 x	4.89	1	 x	 half
3	 N	2	70	 x	0	 x	 x	3.737	1	1.7	 full
3	 N	2	71	 R	0	 r	 x	4.989	1	 x	 half
3	 N	2	72	 R	0	 r	 x	6.496	1	 x	 half
3	 N	2	73	 x	0	 r	 x	10.086	1	1.7	 full
3	 N	2	74	 R	0	 r	 x	4.367	1	 x	 half
3	 N	2	75	 x	1	 l	 right	1.414	1	6	 full
3	 N	2	76	 x	1	 r	 left	3.187	0	1.7	 full
3	 N	2	77	 R	0	 r	 x	11.24	1	 x	 half
3	 N	2	78	 x	1	 l	 right	1.593	1	6	 full
3	 N	2	79	 x	0	 r	 x	8.153	1	1.7	 full
3	 N	2	80	 x	1	 r	 left	4.916	0	1.7	 full
3	 N	2	81	 x	0	 r	 x	7.415	1	1.7	 full
3	 N	2	82	 R	1	 l	 left	4.283	1	 x	 half
3	 N	2	83	 x	1	 l	 left	1.748	1	1.7	 full
3	 N	2	84	 x	0	 r	 x	2.809	1	1.7	 full
3	 N	2	85	 R	0	 r	 x	8.654	1	 x	 half
3	 N	2	86	 x	1	 l	 left	7.604	1	1.7	 full
3	 N	2	87	 L	1	 l	 left	2.273	1	 x	 half
3	 N	2	88	 x	1	 l	 right	1.524	1	6	 full
3	 N	2	89	 x	0	 r	 x	2.038	1	6	 full
3	 N	2	90	 L	1	 l	 right	2.179	1	 x	 half
3	 N	2	91	 R	1	 l	 right	1.439	1	 x	 half
3	 N	2	92	 L	1	 l	 left	1.549	1	 x	 half
3	 N	2	93	 L	1	 r	 right	3.369	0	 x	 half
3	 N	2	94	 L	0	 r	 x	6.644	1	 x	 half
3	 N	2	95	 R	0	 r	 x	6.444	1	 x	 half
3	 N	2	96	 x	0	 r	 x	5.716	1	1.7	 full
3	 N	2	97	 L	1	 l	 left	1.519	1	 x	 half
3	 N	2	98	 x	0	 r	 x	2.13	1	6	 full
3	 N	2	99	 x	0	 x	 x	4.768	1	1.7	 full
3	 N	2	100	 R	0	 l	 x	3.146	0	 x	 half
3	 N	2	101	 R	1	 l	 right	1.688	1	 x	 half
3	 N	2	102	 x	1	 l	 right	0.46	0	1.7	 full
3	 N	2	103	 x	1	 l	 left	1.666	1	6	 full
3	 N	2	104	 L	0	 r	 x	4.367	1	 x	 half
3	 N	2	105	 x	1	 l	 left	1.689	1	1.7	 full
3	 N	2	106	 x	0	 r	 x	4.768	1	1.7	 full
3	 N	2	107	 x	0	 r	 x	3.468	1	1.7	 full
3	 N	2	108	 x	1	 l	 left	1.5	1	6	 full
3	 N	2	109	 x	1	 l	 right	1.469	1	6	 full
3	 N	2	110	 x	1	 r	 right	3.608	0	1.7	 full
3	 N	2	111	 x	1	 r	 right	7.793	0	1.7	 full
3	 N	2	112	 x	0	 r	 x	1.718	1	6	 full
3	 N	2	113	 x	0	 r	 x	1.953	1	6	 full
3	 N	2	114	 x	1	 l	 right	1.601	1	6	 full
3	 N	2	115	 x	0	 r	 x	1.798	1	1.7	 full
3	 N	2	116	 R	1	 l	 right	1.57	1	 x	 half
3	 N	2	117	 x	0	 l	 x	1.549	0	6	 full
3	 N	2	118	 x	0	 r	 x	1.658	1	6	 full
3	 N	2	119	 x	0	 r	 x	6.086	1	1.7	 full
3	 N	2	120	 x	1	 l	 right	1.669	1	1.7	 full
3	 N	2	121	 x	0	 r	 x	2	1	1.7	 full
3	 N	2	122	 x	1	 l	 left	1.529	1	6	 full
3	 N	2	123	 R	0	 r	 x	4.197	1	 x	 half
3	 N	2	124	 x	0	 r	 x	1.594	1	6	 full
3	 N	2	125	 x	0	 r	 x	3.888	1	1.7	 full
3	 N	2	126	 x	1	 l	 left	1.509	1	6	 full
3	 N	2	127	 x	1	 l	 left	2.01	1	1.7	 full
3	 N	2	128	 L	0	 r	 x	3.557	1	 x	 half
3	 N	2	129	 x	1	 l	 right	3.078	1	1.7	 full
3	 N	2	130	 x	1	 r	 right	2.597	0	1.7	 full
3	 N	2	131	 R	0	 r	 x	5.516	1	 x	 half
3	 N	2	132	 x	1	 l	 right	1.898	1	1.7	 full
3	 N	2	133	 x	0	 r	 x	3.537	1	1.7	 full
3	 N	2	134	 x	1	 l	 left	3.109	1	1.7	 full
3	 N	2	135	 x	1	 l	 right	2.208	1	1.7	 full
3	 N	2	136	 x	1	 l	 right	1.709	1	6	 full
3	 N	2	137	 x	0	 r	 x	3.968	1	1.7	 full
3	 N	2	138	 x	1	 l	 left	1.499	1	6	 full
3	 N	2	139	 R	0	 r	 x	3.567	1	 x	 half
3	 N	2	140	 L	1	 l	 left	1.709	1	 x	 half
3	 N	2	141	 x	0	 r	 x	2.039	1	6	 full
3	 N	2	142	 x	0	 r	 x	1.766	1	6	 full
3	 N	2	143	 x	0	 r	 x	1.569	1	6	 full
3	 N	2	144	 L	0	 r	 x	3.508	1	 x	 half
3	 N	2	145	 L	1	 l	 left	1.499	1	 x	 half
3	 N	2	146	 x	1	 l	 right	1.51	1	6	 full
3	 N	2	147	 x	0	 r	 x	1.649	1	6	 full
3	 N	2	148	 x	0	 r	 x	1.83	1	6	 full
3	 N	2	149	 R	1	 l	 right	1.479	1	 x	 half
3	 N	2	150	 x	1	 l	 left	1.499	1	6	 full
3	 N	2	151	 L	0	 r	 x	3.328	1	 x	 half
3	 N	2	152	 x	1	 l	 right	1.729	1	6	 full
3	 N	2	153	 x	0	 r	 x	1.869	1	6	 full
3	 N	2	154	 x	1	 l	 right	1.63	1	6	 full
3	 N	2	155	 x	0	 r	 x	3.748	1	1.7	 full
3	 N	2	156	 x	1	 l	 left	1.446	1	6	 full
3	 N	2	157	 x	0	 r	 x	5.247	1	1.7	 full
3	 N	2	158	 x	1	 l	 right	1.459	1	6	 full
3	 N	2	159	 x	1	 r	 left	1.856	0	1.7	 full
3	 N	2	160	 x	0	 r	 x	2.978	1	6	 full
3	 N	2	161	 x	0	 r	 x	4.657	1	1.7	 full
3	 N	2	162	 x	1	 l	 right	1.561	1	6	 full
3	 N	2	163	 R	0	 r	 x	3.088	1	 x	 half
3	 N	2	164	 x	0	 r	 x	1.649	1	6	 full
3	 N	2	165	 x	0	 r	 x	1.639	1	1.7	 full
3	 N	2	166	 x	0	 r	 x	1.619	1	6	 full
3	 N	2	167	 x	0	 r	 x	1.529	1	6	 full
3	 N	2	168	 x	0	 r	 x	1.587	1	6	 full
3	 N	2	169	 x	0	 r	 x	2.459	1	1.7	 full
3	 N	2	170	 x	1	 l	 right	1.68	1	1.7	 full
3	 N	2	171	 L	1	 l	 left	1.497	1	 x	 half
3	 N	2	172	 x	0	 r	 x	1.669	1	6	 full
3	 N	2	173	 L	1	 r	 right	3.299	0	 x	 half
3	 N	2	174	 x	0	 r	 x	2.593	1	1.7	 full
3	 N	2	175	 x	1	 r	 right	3.438	0	1.7	 full
3	 N	2	176	 L	0	 r	 x	2.868	1	 x	 half
3	 N	2	177	 x	1	 r	 left	6.915	0	1.7	 full
3	 N	2	178	 x	1	 l	 right	1.689	1	6	 full
3	 N	2	179	 x	0	 r	 x	1.588	1	6	 full
3	 N	2	180	 x	1	 l	 right	1.699	1	6	 full
3	 N	2	181	 L	1	 l	 right	1.719	1	 x	 half
3	 N	2	182	 x	1	 l	 left	1.53	1	6	 full
3	 N	2	183	 L	0	 r	 x	2.049	1	 x	 half
3	 N	2	184	 R	1	 l	 right	1.488	1	 x	 half
3	 N	2	185	 x	0	 r	 x	1.62	1	6	 full
3	 N	2	186	 R	1	 l	 right	1.489	1	 x	 half
3	 N	2	187	 x	1	 l	 right	1.459	1	6	 full
3	 N	2	188	 x	0	 r	 x	1.621	1	6	 full
3	 N	2	189	 R	1	 r	 left	1.96	0	 x	 half
3	 N	2	190	 x	0	 r	 x	1.74	1	6	 full
3	 N	2	191	 x	0	 r	 x	1.76	1	6	 full
3	 N	2	192	 x	1	 l	 left	1.5	1	6	 full
3	 N	2	193	 R	0	 r	 x	3.877	1	 x	 half
3	 N	2	194	 L	1	 l	 right	3.345	1	 x	 half
3	 N	2	195	 L	1	 l	 left	1.645	1	 x	 half
3	 N	2	196	 x	1	 x	 left	2.269	1	1.7	 full
3	 N	2	197	 x	0	 r	 x	1.758	1	6	 full
3	 N	2	198	 R	0	 r	 x	6.615	1	 x	 half
3	 N	2	199	 L	0	 r	 x	5.035	1	 x	 half
3	 N	2	200	 L	0	 r	 x	3.956	1	 x	 half
3	 N	2	201	 L	1	 l	 left	1.639	1	 x	 half
3	 N	2	202	 x	1	 l	 left	1.669	1	6	 full
3	 N	2	203	 x	0	 r	 x	5.134	1	1.7	 full
3	 N	2	204	 x	1	 l	 left	1.729	1	1.7	 full
3	 N	2	205	 x	0	 r	 x	3.731	1	1.7	 full
3	 N	2	206	 x	1	 r	 left	8.023	0	1.7	 full
3	 N	2	207	 R	1	 l	 left	1.8	1	 x	 half
3	 N	2	208	 x	0	 r	 x	1.619	1	6	 full
3	 N	2	209	 R	0	 r	 x	4.367	1	 x	 half
3	 N	2	210	 R	1	 l	 right	1.618	1	 x	 half
3	 N	2	211	 x	0	 x	 x	4.028	1	1.7	 full
3	 N	2	212	 x	1	 l	 left	1.649	1	6	 full
3	 N	2	213	 x	1	 r	 left	4.755	0	1.7	 full
3	 N	2	214	 x	1	 r	 right	2.469	0	1.7	 full
3	 N	2	215	 x	1	 r	 right	3.611	0	1.7	 full
3	 N	2	216	 x	1	 l	 left	3.606	1	1.7	 full
3	 N	2	217	 x	1	 l	 left	1.639	1	1.7	 full
3	 N	2	218	 x	1	 l	 left	1.402	1	6	 full
3	 N	2	219	 x	1	 l	 left	1.419	1	6	 full
3	 N	2	220	 x	0	 r	 x	1.798	1	6	 full
3	 N	2	221	 x	1	 l	 left	1.56	1	6	 full
3	 N	2	222	 x	1	 l	 left	1.371	1	6	 full
3	 N	2	223	 R	1	 l	 right	1.699	1	 x	 half
3	 N	2	224	 x	0	 r	 x	1.899	1	6	 full
3	 N	2	225	 L	1	 l	 right	1.749	1	 x	 half
3	 N	2	226	 x	1	 l	 left	1.57	1	6	 full
3	 N	2	227	 x	0	 r	 x	4.687	1	1.7	 full
3	 N	2	228	 x	0	 r	 x	1.768	1	6	 full
3	 N	2	229	 L	0	 r	 x	4.367	1	 x	 half
3	 N	2	230	 x	1	 l	 right	1.937	1	6	 full
3	 N	2	231	 x	0	 r	 x	3.017	1	1.7	 full
3	 N	2	232	 x	0	 r	 x	4.576	1	1.7	 full
3	 N	2	233	 x	0	 r	 x	5.965	1	1.7	 full
3	 N	2	234	 x	1	 r	 right	2.93	0	1.7	 full
3	 N	2	235	 L	1	 l	 left	1.53	1	 x	 half
3	 N	2	236	 x	1	 l	 right	1.58	1	1.7	 full
3	 N	2	237	 x	0	 r	 x	4.018	1	1.7	 full
3	 N	2	238	 x	1	 l	 left	1.538	1	6	 full
3	 N	2	239	 x	1	 r	 left	3.778	0	1.7	 full
3	 N	2	240	 x	1	 l	 right	2.019	1	1.7	 full
4	 T	2	1	 L	1	 l	 left	1.762	1	 x	 half
4	 T	2	2	 x	1	 r	 left	2.954	0	1.7	 full
4	 T	2	3	 x	1	 l	 left	1.598	1	6	 full
4	 T	2	4	 x	0	 r	 x	3.212	1	1.7	 full
4	 T	2	5	 L	1	 r	 right	2.498	0	 x	 half
4	 T	2	6	 L	1	 l	 right	2.527	1	 x	 half
4	 T	2	7	 x	1	 l	 left	1.628	1	6	 full
4	 T	2	8	 L	1	 l	 left	1.589	1	 x	 half
4	 T	2	9	 L	1	 l	 left	1.589	1	 x	 half
4	 T	2	10	 R	1	 l	 right	1.938	1	 x	 half
4	 T	2	11	 x	0	 r	 x	1.899	1	6	 full
4	 T	2	12	 L	1	 r	 right	2.858	0	 x	 half
4	 T	2	13	 x	1	 l	 left	1.989	1	1.7	 full
4	 T	2	14	 x	0	 r	 x	5.225	1	1.7	 full
4	 T	2	15	 R	1	 l	 left	2.088	1	 x	 half
4	 T	2	16	 x	0	 r	 x	1.839	1	6	 full
4	 T	2	17	 x	0	 r	 x	1.878	1	6	 full
4	 T	2	18	 R	0	 r	 x	3.158	1	 x	 half
4	 T	2	19	 x	0	 r	 x	1.71	1	6	 full
4	 T	2	20	 x	0	 r	 x	2.346	1	1.7	 full
4	 T	2	21	 L	0	 r	 x	2.676	1	 x	 half
4	 T	2	22	 x	0	 r	 x	2.416	1	1.7	 full
4	 T	2	23	 x	0	 r	 x	2.758	1	1.7	 full
4	 T	2	24	 x	0	 r	 x	2.529	1	1.7	 full
4	 T	2	25	 x	1	 l	 left	2.204	1	1.7	 full
4	 T	2	26	 x	0	 r	 x	1.811	1	6	 full
4	 T	2	27	 x	1	 r	 right	2	0	1.7	 full
4	 T	2	28	 L	0	 r	 x	2.699	1	 x	 half
4	 T	2	29	 x	1	 l	 right	1.929	1	6	 full
4	 T	2	30	 x	0	 r	 x	3.068	1	1.7	 full
4	 T	2	31	 x	0	 r	 x	2.229	1	1.7	 full
4	 T	2	32	 x	1	 l	 right	1.679	1	6	 full
4	 T	2	33	 L	0	 r	 x	2.878	1	 x	 half
4	 T	2	34	 x	1	 r	 right	2.575	0	1.7	 full
4	 T	2	35	 x	0	 r	 x	3.237	1	1.7	 full
4	 T	2	36	 L	0	 r	 x	2.368	1	 x	 half
4	 T	2	37	 x	0	 r	 x	2.637	1	1.7	 full
4	 T	2	38	 x	1	 l	 right	2.188	1	1.7	 full
4	 T	2	39	 x	0	 r	 x	1.796	1	6	 full
4	 T	2	40	 x	1	 l	 left	1.78	1	1.7	 full
4	 T	2	41	 x	1	 l	 left	1.7	1	1.7	 full
4	 T	2	42	 x	1	 l	 right	1.59	1	6	 full
4	 T	2	43	 x	1	 l	 left	1.5	1	6	 full
4	 T	2	44	 L	0	 r	 x	2.888	1	 x	 half
4	 T	2	45	 x	1	 l	 left	1.56	1	1.7	 full
4	 T	2	46	 x	1	 l	 left	1.51	1	6	 full
4	 T	2	47	 x	0	 r	 x	2.549	1	1.7	 full
4	 T	2	48	 x	1	 l	 right	2.898	1	1.7	 full
4	 T	2	49	 R	0	 r	 x	3.298	1	 x	 half
4	 T	2	50	 R	0	 r	 x	3.137	1	 x	 half
4	 T	2	51	 x	0	 r	 x	1.998	1	6	 full
4	 T	2	52	 x	0	 r	 x	1.989	1	6	 full
4	 T	2	53	 x	1	 l	 left	1.592	1	6	 full
4	 T	2	54	 L	0	 r	 x	2.777	1	 x	 half
4	 T	2	55	 x	0	 r	 x	2.029	1	6	 full
4	 T	2	56	 x	0	 r	 x	2.219	1	6	 full
4	 T	2	57	 L	0	 r	 x	3.159	1	 x	 half
4	 T	2	58	 x	0	 r	 x	2.519	1	6	 full
4	 T	2	59	 x	1	 l	 left	1.709	1	6	 full
4	 T	2	60	 x	1	 l	 left	2.379	1	1.7	 full
4	 T	2	61	 x	0	 r	 x	1.9	1	6	 full
4	 T	2	62	 x	1	 l	 left	1.709	1	1.7	 full
4	 T	2	63	 x	1	 l	 right	2.837	1	1.7	 full
4	 T	2	64	 x	1	 l	 right	1.67	1	6	 full
4	 T	2	65	 x	0	 r	 x	2.219	1	6	 full
4	 T	2	66	 x	0	 r	 x	3.606	1	1.7	 full
4	 T	2	67	 x	1	 l	 right	2.438	1	1.7	 full
4	 T	2	68	 x	0	 r	 x	4.037	1	1.7	 full
4	 T	2	69	 R	0	 r	 x	3.007	1	 x	 half
4	 T	2	70	 L	1	 l	 left	1.82	1	 x	 half
4	 T	2	71	 x	1	 l	 right	1.829	1	6	 full
4	 T	2	72	 R	0	 r	 x	3.767	1	 x	 half
4	 T	2	73	 R	1	 l	 right	1.774	1	 x	 half
4	 T	2	74	 x	1	 l	 right	2.413	1	1.7	 full
4	 T	2	75	 L	1	 l	 right	2.039	1	 x	 half
4	 T	2	76	 L	0	 r	 x	3.088	1	 x	 half
4	 T	2	77	 R	0	 r	 x	3.395	1	 x	 half
4	 T	2	78	 x	1	 l	 right	1.67	1	6	 full
4	 T	2	79	 R	1	 l	 left	2.278	1	 x	 half
4	 T	2	80	 L	0	 r	 x	2.326	1	 x	 half
4	 T	2	81	 L	0	 r	 x	1.949	1	 x	 half
4	 T	2	82	 R	1	 l	 right	1.629	1	 x	 half
4	 T	2	83	 x	1	 l	 right	1.787	1	1.7	 full
4	 T	2	84	 R	0	 r	 x	2.158	1	 x	 half
4	 T	2	85	 x	1	 l	 left	2.528	1	1.7	 full
4	 T	2	86	 R	1	 r	 left	2.149	0	 x	 half
4	 T	2	87	 x	0	 r	 x	3.039	1	1.7	 full
4	 T	2	88	 L	0	 r	 x	2.738	1	 x	 half
4	 T	2	89	 x	1	 r	 left	2.758	0	1.7	 full
4	 T	2	90	 x	1	 l	 right	1.609	1	6	 full
4	 T	2	91	 R	0	 r	 x	2.893	1	 x	 half
4	 T	2	92	 x	0	 r	 x	1.833	1	6	 full
4	 T	2	93	 x	0	 r	 x	1.721	1	6	 full
4	 T	2	94	 x	0	 r	 x	3.119	1	1.7	 full
4	 T	2	95	 x	0	 r	 x	2.379	1	1.7	 full
4	 T	2	96	 L	1	 l	 right	2.039	1	 x	 half
4	 T	2	97	 x	0	 r	 x	3.259	1	1.7	 full
4	 T	2	98	 x	0	 r	 x	2.59	1	1.7	 full
4	 T	2	99	 x	1	 l	 left	1.77	1	6	 full
4	 T	2	100	 x	1	 l	 right	1.702	1	6	 full
4	 T	2	101	 R	0	 r	 x	3.697	1	 x	 half
4	 T	2	102	 x	1	 l	 right	2.858	1	1.7	 full
4	 T	2	103	 x	0	 r	 x	2.759	1	1.7	 full
4	 T	2	104	 R	1	 l	 right	1.8	1	 x	 half
4	 T	2	105	 x	1	 r	 left	3.018	0	1.7	 full
4	 T	2	106	 x	1	 l	 left	1.732	1	6	 full
4	 T	2	107	 R	1	 l	 right	1.71	1	 x	 half
4	 T	2	108	 x	0	 r	 x	2.079	1	6	 full
4	 T	2	109	 L	1	 l	 left	1.699	1	 x	 half
4	 T	2	110	 x	0	 r	 x	2.759	1	1.7	 full
4	 T	2	111	 x	0	 r	 x	1.949	1	6	 full
4	 T	2	112	 x	1	 l	 left	2.949	1	1.7	 full
4	 T	2	113	 x	1	 l	 left	1.599	1	6	 full
4	 T	2	114	 L	0	 r	 x	2.19	1	 x	 half
4	 T	2	115	 x	1	 l	 right	1.679	1	6	 full
4	 T	2	116	 x	1	 l	 left	3.677	1	1.7	 full
4	 T	2	117	 x	0	 r	 x	2.819	1	1.7	 full
4	 T	2	118	 R	0	 r	 x	3.587	1	 x	 half
4	 T	2	119	 x	0	 r	 x	1.805	1	6	 full
4	 T	2	120	 R	0	 r	 x	2.482	1	 x	 half
4	 T	2	121	 L	1	 r	 right	2.521	0	 x	 half
4	 T	2	122	 x	0	 r	 x	1.73	1	6	 full
4	 T	2	123	 R	1	 r	 left	3.277	0	 x	 half
4	 T	2	124	 x	1	 r	 right	3.429	0	1.7	 full
4	 T	2	125	 x	1	 l	 right	1.88	1	6	 full
4	 T	2	126	 L	0	 r	 x	3.449	1	 x	 half
4	 T	2	127	 L	1	 l	 left	1.671	1	 x	 half
4	 T	2	128	 x	0	 r	 x	1.928	1	6	 full
4	 T	2	129	 x	0	 r	 x	2.728	1	1.7	 full
4	 T	2	130	 L	1	 l	 left	1.599	1	 x	 half
4	 T	2	131	 x	1	 l	 left	1.619	1	6	 full
4	 T	2	132	 x	0	 r	 x	2.268	1	6	 full
4	 T	2	133	 R	0	 r	 x	2.709	1	 x	 half
4	 T	2	134	 x	0	 r	 x	3.177	1	1.7	 full
4	 T	2	135	 x	1	 r	 right	2.988	0	1.7	 full
4	 T	2	136	 x	1	 l	 right	1.661	1	6	 full
4	 T	2	137	 R	0	 r	 x	3.057	1	 x	 half
4	 T	2	138	 x	1	 l	 right	1.602	1	6	 full
4	 T	2	139	 x	0	 r	 x	2.078	1	6	 full
4	 T	2	140	 L	0	 r	 x	2.958	1	 x	 half
4	 T	2	141	 x	0	 r	 x	1.845	1	6	 full
4	 T	2	142	 x	0	 r	 x	1.861	1	6	 full
4	 T	2	143	 x	0	 r	 x	3.518	1	1.7	 full
4	 T	2	144	 R	0	 r	 x	2.898	1	 x	 half
4	 T	2	145	 x	0	 r	 x	1.838	1	6	 full
4	 T	2	146	 x	1	 r	 left	2.419	0	1.7	 full
4	 T	2	147	 R	1	 l	 right	1.65	1	 x	 half
4	 T	2	148	 x	1	 l	 right	1.684	1	6	 full
4	 T	2	149	 x	1	 l	 left	1.55	1	6	 full
4	 T	2	150	 x	0	 l	 x	1.64	0	6	 full
4	 T	2	151	 x	1	 l	 right	1.7	1	6	 full
4	 T	2	152	 x	0	 r	 x	1.944	1	6	 full
4	 T	2	153	 x	1	 l	 left	2.011	1	1.7	 full
4	 T	2	154	 L	1	 l	 left	1.539	1	 x	 half
4	 T	2	155	 x	0	 r	 x	1.889	1	6	 full
4	 T	2	156	 R	1	 r	 left	3.372	0	 x	 half
4	 T	2	157	 x	0	 r	 x	1.829	1	6	 full
4	 T	2	158	 x	1	 l	 left	1.709	1	6	 full
4	 T	2	159	 x	0	 r	 x	1.839	1	6	 full
4	 T	2	160	 R	1	 l	 right	1.699	1	 x	 half
4	 T	2	161	 x	1	 l	 right	1.589	1	6	 full
4	 T	2	162	 L	1	 l	 right	2.128	1	 x	 half
4	 T	2	163	 x	1	 l	 right	1.62	1	6	 full
4	 T	2	164	 x	0	 r	 x	2.058	1	6	 full
4	 T	2	165	 x	0	 r	 x	2.408	1	1.7	 full
4	 T	2	166	 x	0	 r	 x	2.44	1	6	 full
4	 T	2	167	 x	0	 r	 x	1.753	1	6	 full
4	 T	2	168	 x	0	 r	 x	2.568	1	1.7	 full
4	 T	2	169	 x	1	 l	 left	2.238	1	1.7	 full
4	 T	2	170	 x	0	 r	 x	2.119	1	1.7	 full
4	 T	2	171	 R	0	 r	 x	3.857	1	 x	 half
4	 T	2	172	 L	1	 l	 left	1.617	1	 x	 half
4	 T	2	173	 L	1	 l	 right	1.898	1	 x	 half
4	 T	2	174	 x	0	 r	 x	2	1	1.7	 full
4	 T	2	175	 x	1	 l	 left	1.549	1	6	 full
4	 T	2	176	 x	0	 r	 x	2.09	1	1.7	 full
4	 T	2	177	 x	1	 l	 right	2.728	1	1.7	 full
4	 T	2	178	 x	0	 r	 x	2.939	1	1.7	 full
4	 T	2	179	 x	1	 l	 right	1.615	1	6	 full
4	 T	2	180	 x	0	 r	 x	1.791	1	6	 full
4	 T	2	181	 L	1	 l	 left	1.598	1	 x	 half
4	 T	2	182	 x	0	 r	 x	3.39	1	1.7	 full
4	 T	2	183	 x	1	 l	 right	1.723	1	1.7	 full
4	 T	2	184	 x	1	 l	 left	1.55	1	6	 full
4	 T	2	185	 x	0	 r	 x	3.367	1	1.7	 full
4	 T	2	186	 L	0	 r	 x	2.098	1	 x	 half
4	 T	2	187	 L	1	 l	 left	1.69	1	 x	 half
4	 T	2	188	 R	0	 r	 x	3.227	1	 x	 half
4	 T	2	189	 x	1	 l	 left	1.595	1	6	 full
4	 T	2	190	 L	0	 r	 x	2.56	1	 x	 half
4	 T	2	191	 x	0	 r	 x	2.249	1	6	 full
4	 T	2	192	 L	1	 l	 right	2.069	1	 x	 half
4	 T	2	193	 x	1	 l	 left	1.556	1	6	 full
4	 T	2	194	 R	0	 r	 x	2.545	1	 x	 half
4	 T	2	195	 x	1	 l	 left	1.528	1	6	 full
4	 T	2	196	 x	1	 l	 right	2.838	1	1.7	 full
4	 T	2	197	 x	1	 l	 right	2.578	1	1.7	 full
4	 T	2	198	 x	0	 r	 x	1.929	1	6	 full
4	 T	2	199	 x	1	 l	 right	1.609	1	6	 full
4	 T	2	200	 x	1	 l	 left	1.879	1	1.7	 full
4	 T	2	201	 x	1	 l	 left	1.559	1	6	 full
4	 T	2	202	 L	0	 r	 x	2.369	1	 x	 half
4	 T	2	203	 L	0	 r	 x	2.099	1	 x	 half
4	 T	2	204	 R	0	 r	 x	3.358	1	 x	 half
4	 T	2	205	 L	1	 l	 left	1.724	1	 x	 half
4	 T	2	206	 x	0	 r	 x	1.769	1	6	 full
4	 T	2	207	 x	1	 l	 left	2.722	1	1.7	 full
4	 T	2	208	 R	0	 r	 x	2.698	1	 x	 half
4	 T	2	209	 x	1	 l	 right	2.729	1	1.7	 full
4	 T	2	210	 x	0	 r	 x	3.447	1	1.7	 full
4	 T	2	211	 x	0	 r	 x	2.539	1	1.7	 full
4	 T	2	212	 L	0	 r	 x	2.099	1	 x	 half
4	 T	2	213	 x	0	 r	 x	2.62	1	1.7	 full
4	 T	2	214	 x	0	 r	 x	1.864	1	1.7	 full
4	 T	2	215	 L	0	 r	 x	2.541	1	 x	 half
4	 T	2	216	 R	1	 l	 right	1.63	1	 x	 half
4	 T	2	217	 R	1	 r	 left	2.618	0	 x	 half
4	 T	2	218	 x	1	 l	 right	3.228	1	1.7	 full
4	 T	2	219	 R	1	 l	 right	1.649	1	 x	 half
4	 T	2	220	 x	0	 r	 x	1.807	1	6	 full
4	 T	2	221	 x	0	 l	 x	3.678	0	1.7	 full
4	 T	2	222	 x	1	 l	 left	1.714	1	1.7	 full
4	 T	2	223	 x	1	 l	 left	1.76	1	6	 full
4	 T	2	224	 x	1	 l	 right	1.669	1	6	 full
4	 T	2	225	 x	0	 r	 x	3.428	1	1.7	 full
4	 T	2	226	 x	1	 l	 left	1.55	1	6	 full
4	 T	2	227	 x	0	 r	 x	2.918	1	1.7	 full
4	 T	2	228	 L	1	 l	 left	1.563	1	 x	 half
4	 T	2	229	 R	1	 l	 right	1.588	1	 x	 half
4	 T	2	230	 x	0	 r	 x	1.785	1	6	 full
4	 T	2	231	 x	1	 l	 right	2.28	1	1.7	 full
4	 T	2	232	 x	1	 l	 right	2.299	1	1.7	 full
4	 T	2	233	 x	1	 l	 right	2.167	1	1.7	 full
4	 T	2	234	 L	0	 r	 x	3.438	1	 x	 half
4	 T	2	235	 x	1	 l	 right	1.57	1	6	 full
4	 T	2	236	 x	0	 r	 x	2.028	1	6	 full
4	 T	2	237	 R	1	 l	 right	1.613	1	 x	 half
4	 T	2	238	 x	0	 r	 x	3.497	1	1.7	 full
4	 T	2	239	 L	1	 l	 left	1.569	1	 x	 half
4	 T	2	240	 x	1	 l	 left	1.62	1	1.7	 full
4	 N	1	1	 x	1	 l	 left	5.814	1	1.7	 full
4	 N	1	2	 x	0	 r	 x	4.046	1	6	 full
4	 N	1	3	 R	1	 l	 right	2.678	1	 x	 half
4	 N	1	4	 x	1	 l	 right	2.294	1	6	 full
4	 N	1	5	 x	0	 r	 x	14.617	1	1.7	 full
4	 N	1	6	 R	1	 l	 right	2.027	1	 x	 half
4	 N	1	7	 x	1	 l	 left	2.648	1	1.7	 full
4	 N	1	8	 x	1	 l	 left	1.85	1	6	 full
4	 N	1	9	 x	1	 r	 left	12.629	0	1.7	 full
4	 N	1	10	 x	1	 r	 right	12.639	0	1.7	 full
4	 N	1	11	 x	0	 r	 x	5.226	1	6	 full
4	 N	1	12	 x	0	 r	 x	4.907	1	6	 full
4	 N	1	13	 L	0	 r	 x	7.915	1	 x	 half
4	 N	1	14	 x	0	 r	 x	5.087	1	6	 full
4	 N	1	15	 x	1	 l	 left	1.94	1	6	 full
4	 N	1	16	 x	0	 r	 x	8.394	1	1.7	 full
4	 N	1	17	 x	1	 l	 right	1.907	1	6	 full
4	 N	1	18	 x	1	 l	 left	1.857	1	6	 full
4	 N	1	19	 x	0	 r	 x	16.018	1	1.7	 full
4	 N	1	20	 x	1	 l	 left	1.81	1	6	 full
4	 N	1	21	 R	0	 r	 x	9.321	1	 x	 half
4	 N	1	22	 R	1	 l	 right	1.848	1	 x	 half
4	 N	1	23	 x	0	 r	 x	3.517	1	6	 full
4	 N	1	24	 x	0	 r	 x	3.523	1	6	 full
4	 N	1	25	 x	0	 r	 x	3.352	1	6	 full
4	 N	1	26	 L	0	 r	 x	8.603	1	 x	 half
4	 N	1	27	 x	0	 r	 x	3.477	1	6	 full
4	 N	1	28	 x	0	 r	 x	3.487	1	6	 full
4	 N	1	29	 x	1	 l	 right	1.905	1	6	 full
4	 N	1	30	 x	1	 l	 left	2.109	1	6	 full
4	 N	1	31	 L	1	 r	 right	10.218	0	 x	 half
4	 N	1	32	 R	0	 r	 x	10.043	1	 x	 half
4	 N	1	33	 x	0	 r	 x	13.779	1	1.7	 full
4	 N	1	34	 x	1	 l	 right	1.839	1	6	 full
4	 N	1	35	 R	1	 l	 right	1.748	1	 x	 half
4	 N	1	36	 x	0	 r	 x	10.193	1	1.7	 full
4	 N	1	37	 x	0	 r	 x	10.735	1	1.7	 full
4	 N	1	38	 x	0	 r	 x	13.458	1	1.7	 full
4	 N	1	39	 L	1	 l	 left	2.009	1	 x	 half
4	 N	1	40	 x	0	 r	 x	10.781	1	1.7	 full
4	 N	1	41	 x	1	 l	 left	1.715	1	6	 full
4	 N	1	42	 L	0	 l	 x	0.042	0	 x	 half
4	 N	1	43	 x	0	 r	 x	3.075	1	6	 full
4	 N	1	44	 R	0	 r	 x	6.275	1	 x	 half
4	 N	1	45	 x	1	 l	 left	2.317	1	1.7	 full
4	 N	1	46	 x	1	 r	 right	9.761	0	1.7	 full
4	 N	1	47	 L	1	 l	 left	1.69	1	 x	 half
4	 N	1	48	 L	0	 r	 x	8.804	1	 x	 half
4	 N	1	49	 R	0	 r	 x	10.043	1	 x	 half
4	 N	1	50	 R	0	 r	 x	5.462	1	 x	 half
4	 N	1	51	 L	0	 r	 x	9.193	1	 x	 half
4	 N	1	52	 x	0	 r	 x	3.129	1	6	 full
4	 N	1	53	 x	1	 l	 right	1.838	1	6	 full
4	 N	1	54	 L	0	 r	 x	5.447	1	 x	 half
4	 N	1	55	 L	1	 l	 left	1.857	1	 x	 half
4	 N	1	56	 x	1	 l	 left	3.647	1	1.7	 full
4	 N	1	57	 x	1	 l	 right	1.988	1	6	 full
4	 N	1	58	 x	1	 l	 right	1.752	1	6	 full
4	 N	1	59	 L	1	 l	 left	1.849	1	 x	 half
4	 N	1	60	 x	0	 r	 x	6.408	1	1.7	 full
4	 N	1	61	 x	1	 r	 left	7.045	0	1.7	 full
4	 N	1	62	 R	0	 r	 x	7.294	1	 x	 half
4	 N	1	63	 R	0	 r	 x	6.445	1	 x	 half
4	 N	1	64	 x	0	 r	 x	11.052	1	1.7	 full
4	 N	1	65	 x	0	 r	 x	11.046	1	1.7	 full
4	 N	1	66	 x	1	 r	 right	9.133	0	1.7	 full
4	 N	1	67	 x	0	 r	 x	3.198	1	6	 full
4	 N	1	68	 x	1	 l	 left	1.891	1	6	 full
4	 N	1	69	 x	1	 l	 right	3.537	1	1.7	 full
4	 N	1	70	 x	1	 r	 right	9.292	0	1.7	 full
4	 N	1	71	 R	1	 l	 right	1.72	1	 x	 half
4	 N	1	72	 R	1	 l	 left	2.128	1	 x	 half
4	 N	1	73	 x	0	 r	 x	7.123	1	1.7	 full
4	 N	1	74	 x	0	 r	 x	5.096	1	1.7	 full
4	 N	1	75	 x	0	 r	 x	2.627	1	6	 full
4	 N	1	76	 x	1	 l	 left	1.619	1	6	 full
4	 N	1	77	 R	0	 r	 x	5.696	1	 x	 half
4	 N	1	78	 x	0	 r	 x	7.265	1	1.7	 full
4	 N	1	79	 x	0	 r	 x	2.978	1	6	 full
4	 N	1	80	 x	1	 r	 right	7.964	0	1.7	 full
4	 N	1	81	 x	1	 r	 right	6.436	0	1.7	 full
4	 N	1	82	 x	1	 l	 right	1.789	1	6	 full
4	 N	1	83	 L	0	 r	 x	7.015	1	 x	 half
4	 N	1	84	 L	1	 l	 left	1.778	1	 x	 half
4	 N	1	85	 x	0	 r	 x	2.924	1	6	 full
4	 N	1	86	 x	0	 r	 x	2.009	1	6	 full
4	 N	1	87	 L	0	 r	 x	2.942	1	 x	 half
4	 N	1	88	 x	1	 r	 left	6.119	0	1.7	 full
4	 N	1	89	 x	0	 r	 x	7.273	1	1.7	 full
4	 N	1	90	 x	1	 l	 right	2.054	1	6	 full
4	 N	1	91	 x	0	 r	 x	2.067	1	6	 full
4	 N	1	92	 L	0	 r	 x	4.617	1	 x	 half
4	 N	1	93	 x	1	 r	 left	5.556	0	1.7	 full
4	 N	1	94	 R	0	 r	 x	4.586	1	 x	 half
4	 N	1	95	 x	0	 r	 x	1.858	1	6	 full
4	 N	1	96	 x	1	 l	 right	4.246	1	1.7	 full
4	 N	1	97	 x	0	 r	 x	1.961	1	6	 full
4	 N	1	98	 x	1	 l	 left	1.808	1	6	 full
4	 N	1	99	 x	0	 r	 x	3.028	1	6	 full
4	 N	1	100	 x	1	 r	 left	7.81	0	1.7	 full
4	 N	1	101	 R	1	 l	 right	1.77	1	 x	 half
4	 N	1	102	 x	1	 r	 right	6.776	0	1.7	 full
4	 N	1	103	 x	1	 l	 left	3.708	1	1.7	 full
4	 N	1	104	 x	0	 r	 x	9.471	1	1.7	 full
4	 N	1	105	 x	0	 r	 x	2.978	1	6	 full
4	 N	1	106	 x	1	 r	 right	6.827	0	1.7	 full
4	 N	1	107	 x	1	 l	 right	1.7	1	6	 full
4	 N	1	108	 R	0	 r	 x	7.864	1	 x	 half
4	 N	1	109	 x	1	 l	 left	5.466	1	1.7	 full
4	 N	1	110	 x	1	 l	 right	3.006	1	1.7	 full
4	 N	1	111	 x	1	 l	 right	1.715	1	6	 full
4	 N	1	112	 x	1	 l	 left	1.569	1	6	 full
4	 N	1	113	 x	1	 l	 right	1.589	1	6	 full
4	 N	1	114	 L	0	 r	 x	6.425	1	 x	 half
4	 N	1	115	 x	1	 l	 left	1.642	1	6	 full
4	 N	1	116	 L	0	 r	 x	7.401	1	 x	 half
4	 N	1	117	 x	0	 r	 x	2.719	1	6	 full
4	 N	1	118	 x	1	 l	 right	3.707	1	1.7	 full
4	 N	1	119	 L	1	 l	 right	2.809	1	 x	 half
4	 N	1	120	 x	0	 r	 x	8.219	1	1.7	 full
4	 N	1	121	 x	0	 r	 x	8.052	1	1.7	 full
4	 N	1	122	 x	1	 r	 right	8.602	0	1.7	 full
4	 N	1	123	 L	1	 l	 left	2.248	1	 x	 half
4	 N	1	124	 x	1	 l	 right	3.389	1	1.7	 full
4	 N	1	125	 x	1	 l	 left	1.758	1	6	 full
4	 N	1	126	 x	1	 l	 left	1.859	1	1.7	 full
4	 N	1	127	 x	1	 r	 right	7.435	0	1.7	 full
4	 N	1	128	 x	1	 l	 right	1.779	1	6	 full
4	 N	1	129	 x	0	 r	 x	6.944	1	1.7	 full
4	 N	1	130	 R	0	 r	 x	6.04	1	 x	 half
4	 N	1	131	 x	0	 r	 x	5.502	1	1.7	 full
4	 N	1	132	 x	1	 l	 right	1.629	1	6	 full
4	 N	1	133	 R	0	 r	 x	5.406	1	 x	 half
4	 N	1	134	 x	0	 r	 x	1.908	1	6	 full
4	 N	1	135	 x	1	 l	 left	2.98	1	1.7	 full
4	 N	1	136	 x	1	 l	 right	1.735	1	6	 full
4	 N	1	137	 x	0	 r	 x	6.765	1	1.7	 full
4	 N	1	138	 L	0	 r	 x	4.664	1	 x	 half
4	 N	1	139	 L	1	 r	 right	2.575	0	 x	 half
4	 N	1	140	 L	0	 r	 x	2.385	1	 x	 half
4	 N	1	141	 x	1	 l	 right	2.064	1	1.7	 full
4	 N	1	142	 x	1	 l	 right	2.397	1	1.7	 full
4	 N	1	143	 x	1	 r	 left	8.12	0	1.7	 full
4	 N	1	144	 x	0	 r	 x	2.048	1	6	 full
4	 N	1	145	 x	0	 r	 x	2.089	1	6	 full
4	 N	1	146	 x	1	 l	 right	5.326	1	1.7	 full
4	 N	1	147	 L	0	 r	 x	6.531	1	 x	 half
4	 N	1	148	 x	0	 r	 x	2.05	1	6	 full
4	 N	1	149	 x	0	 r	 x	1.947	1	6	 full
4	 N	1	150	 L	0	 r	 x	5.775	1	 x	 half
4	 N	1	151	 R	1	 l	 right	1.808	1	 x	 half
4	 N	1	152	 x	1	 l	 right	1.98	1	1.7	 full
4	 N	1	153	 R	1	 l	 right	1.619	1	 x	 half
4	 N	1	154	 L	0	 r	 x	4.793	1	 x	 half
4	 N	1	155	 x	0	 r	 x	6.939	1	1.7	 full
4	 N	1	156	 R	1	 l	 right	1.933	1	 x	 half
4	 N	1	157	 R	1	 r	 left	4.357	0	 x	 half
4	 N	1	158	 x	0	 r	 x	2.474	1	6	 full
4	 N	1	159	 x	1	 l	 left	1.69	1	6	 full
4	 N	1	160	 R	1	 r	 left	4.866	0	 x	 half
4	 N	1	161	 L	1	 l	 left	1.669	1	 x	 half
4	 N	1	162	 x	0	 r	 x	6.265	1	1.7	 full
4	 N	1	163	 x	1	 l	 left	2.298	1	1.7	 full
4	 N	1	164	 x	0	 r	 x	3.856	1	1.7	 full
4	 N	1	165	 x	1	 l	 left	1.659	1	6	 full
4	 N	1	166	 x	1	 l	 left	2.087	1	1.7	 full
4	 N	1	167	 x	0	 r	 x	6.16	1	1.7	 full
4	 N	1	168	 x	0	 r	 x	2.02	1	6	 full
4	 N	1	169	 R	1	 l	 left	2.054	1	 x	 half
4	 N	1	170	 x	1	 l	 left	1.79	1	6	 full
4	 N	1	171	 R	0	 r	 x	4.933	1	 x	 half
4	 N	1	172	 x	1	 l	 left	1.553	1	6	 full
4	 N	1	173	 x	0	 r	 x	6.534	1	1.7	 full
4	 N	1	174	 x	0	 r	 x	2.224	1	6	 full
4	 N	1	175	 R	0	 r	 x	5.196	1	 x	 half
4	 N	1	176	 L	1	 l	 left	1.649	1	 x	 half
4	 N	1	177	 L	1	 l	 left	1.628	1	 x	 half
4	 N	1	178	 x	0	 r	 x	6.563	1	1.7	 full
4	 N	1	179	 x	0	 r	 x	5.696	1	1.7	 full
4	 N	1	180	 x	0	 r	 x	2.149	1	6	 full
4	 N	1	181	 L	1	 l	 right	2.588	1	 x	 half
4	 N	1	182	 x	1	 l	 left	2.079	1	1.7	 full
4	 N	1	183	 x	0	 r	 x	4.987	1	1.7	 full
4	 N	1	184	 x	1	 l	 right	1.618	1	6	 full
4	 N	1	185	 x	1	 l	 right	1.734	1	6	 full
4	 N	1	186	 L	1	 l	 left	1.608	1	 x	 half
4	 N	1	187	 L	1	 l	 right	3.028	1	 x	 half
4	 N	1	188	 L	1	 l	 right	4.136	1	 x	 half
4	 N	1	189	 x	1	 l	 right	1.642	1	6	 full
4	 N	1	190	 R	0	 r	 x	3.908	1	 x	 half
4	 N	1	191	 x	0	 r	 x	1.969	1	6	 full
4	 N	1	192	 x	1	 l	 left	3.787	1	1.7	 full
4	 N	1	193	 L	1	 l	 left	1.937	1	 x	 half
4	 N	1	194	 L	1	 l	 right	2.708	1	 x	 half
4	 N	1	195	 R	0	 r	 x	5.156	1	 x	 half
4	 N	1	196	 L	1	 l	 left	1.669	1	 x	 half
4	 N	1	197	 L	0	 r	 x	3.896	1	 x	 half
4	 N	1	198	 x	0	 r	 x	7.933	1	1.7	 full
4	 N	1	199	 x	0	 r	 x	2.998	1	6	 full
4	 N	1	200	 x	1	 l	 left	1.9	1	1.7	 full
4	 N	1	201	 L	1	 l	 left	1.591	1	 x	 half
4	 N	1	202	 x	1	 l	 left	1.665	1	6	 full
4	 N	1	203	 L	0	 r	 x	4.463	1	 x	 half
4	 N	1	204	 x	0	 r	 x	5.167	1	1.7	 full
4	 N	1	205	 R	0	 r	 x	4.718	1	 x	 half
4	 N	1	206	 x	0	 r	 x	7.465	1	1.7	 full
4	 N	1	207	 x	1	 r	 right	6.394	0	1.7	 full
4	 N	1	208	 x	0	 r	 x	1.87	1	6	 full
4	 N	1	209	 x	0	 r	 x	5.514	1	1.7	 full
4	 N	1	210	 x	0	 r	 x	5.699	1	1.7	 full
4	 N	1	211	 x	0	 r	 x	1.966	1	6	 full
4	 N	1	212	 L	1	 r	 right	5.186	0	 x	 half
4	 N	1	213	 R	1	 r	 left	4.167	0	 x	 half
4	 N	1	214	 x	1	 l	 right	2.11	1	6	 full
4	 N	1	215	 x	1	 l	 right	1.729	1	6	 full
4	 N	1	216	 x	0	 r	 x	2.087	1	6	 full
4	 N	1	217	 x	0	 r	 x	7.064	1	1.7	 full
4	 N	1	218	 R	0	 r	 x	4.496	1	 x	 half
4	 N	1	219	 L	0	 r	 x	5.976	1	 x	 half
4	 N	1	220	 L	1	 r	 right	4.118	0	 x	 half
4	 N	1	221	 x	0	 r	 x	5.279	1	1.7	 full
4	 N	1	222	 R	0	 r	 x	4.827	1	 x	 half
4	 N	1	223	 x	1	 r	 left	2.609	0	6	 full
4	 N	1	224	 x	0	 r	 x	4.256	1	1.7	 full
4	 N	1	225	 R	1	 r	 left	5.335	0	 x	 half
4	 N	1	226	 L	0	 r	 x	4.837	1	 x	 half
4	 N	1	227	 x	0	 r	 x	1.86	1	6	 full
4	 N	1	228	 x	0	 r	 x	1.819	1	6	 full
4	 N	1	229	 x	1	 l	 left	2.329	1	6	 full
4	 N	1	230	 R	1	 l	 right	1.818	1	 x	 half
4	 N	1	231	 x	1	 l	 left	1.603	1	6	 full
4	 N	1	232	 x	0	 r	 x	5.851	1	1.7	 full
4	 N	1	233	 x	0	 r	 x	1.751	1	6	 full
4	 N	1	234	 L	0	 r	 x	3.507	1	 x	 half
4	 N	1	235	 x	0	 r	 x	6.744	1	1.7	 full
4	 N	1	236	 x	1	 l	 left	2.847	1	1.7	 full
4	 N	1	237	 x	0	 r	 x	5.317	1	1.7	 full
4	 N	1	238	 L	1	 l	 left	1.627	1	 x	 half
4	 N	1	239	 R	1	 l	 right	1.71	1	 x	 half
4	 N	1	240	 x	0	 r	 x	2.375	1	6	 full
5	 T	1	1	 x	1	 l	 right	1.611	1	6	 full
5	 T	1	2	 x	1	 r	 left	1.839	0	1.7	 full
5	 T	1	3	 x	0	 r	 x	2.045	1	6	 full
5	 T	1	4	 x	0	 l	 x	3.217	0	1.7	 full
5	 T	1	5	 L	0	 r	 x	2.208	1	 x	 half
5	 T	1	6	 x	0	 r	 x	1.806	1	6	 full
5	 T	1	7	 R	1	 l	 right	1.608	1	 x	 half
5	 T	1	8	 L	0	 r	 x	2.209	1	 x	 half
5	 T	1	9	 L	1	 l	 left	1.88	1	 x	 half
5	 T	1	10	 x	0	 r	 x	2.1	1	6	 full
5	 T	1	11	 x	1	 l	 right	1.669	1	6	 full
5	 T	1	12	 L	1	 l	 right	1.949	1	 x	 half
5	 T	1	13	 R	1	 l	 right	1.597	1	 x	 half
5	 T	1	14	 x	0	 r	 x	1.878	1	6	 full
5	 T	1	15	 x	0	 r	 x	1.84	1	6	 full
5	 T	1	16	 L	0	 l	 x	1.716	0	 x	 half
5	 T	1	17	 x	1	 l	 right	1.69	1	6	 full
5	 T	1	18	 x	0	 r	 x	1.849	1	6	 full
5	 T	1	19	 x	1	 l	 right	1.501	1	6	 full
5	 T	1	20	 x	0	 r	 x	2.848	1	1.7	 full
5	 T	1	21	 R	0	 r	 x	2.769	1	 x	 half
5	 T	1	22	 x	1	 r	 left	2.638	0	1.7	 full
5	 T	1	23	 x	0	 r	 x	1.941	1	6	 full
5	 T	1	24	 L	0	 r	 x	2.299	1	 x	 half
5	 T	1	25	 L	0	 r	 x	2.119	1	 x	 half
5	 T	1	26	 R	0	 r	 x	2.153	1	 x	 half
5	 T	1	27	 x	0	 r	 x	2.288	1	1.7	 full
5	 T	1	28	 R	0	 r	 x	2.239	1	 x	 half
5	 T	1	29	 R	1	 l	 right	2.098	1	 x	 half
5	 T	1	30	 x	1	 l	 left	1.766	1	6	 full
5	 T	1	31	 x	0	 r	 x	2.538	1	1.7	 full
5	 T	1	32	 x	1	 l	 right	1.858	1	1.7	 full
5	 T	1	33	 x	1	 l	 right	1.547	1	6	 full
5	 T	1	34	 x	1	 l	 right	2.155	1	1.7	 full
5	 T	1	35	 x	0	 r	 x	2.655	1	1.7	 full
5	 T	1	36	 x	0	 r	 x	2.91	1	1.7	 full
5	 T	1	37	 x	0	 r	 x	1.897	1	6	 full
5	 T	1	38	 x	0	 r	 x	2.787	1	1.7	 full
5	 T	1	39	 x	1	 r	 left	2.498	0	1.7	 full
5	 T	1	40	 x	0	 r	 x	2.576	1	1.7	 full
5	 T	1	41	 L	0	 r	 x	2.638	1	 x	 half
5	 T	1	42	 x	1	 l	 right	1.629	1	6	 full
5	 T	1	43	 x	0	 r	 x	2.03	1	6	 full
5	 T	1	44	 L	1	 l	 left	2.063	1	 x	 half
5	 T	1	45	 L	1	 l	 left	1.919	1	 x	 half
5	 T	1	46	 x	1	 l	 right	2.478	1	1.7	 full
5	 T	1	47	 x	1	 l	 left	1.679	1	6	 full
5	 T	1	48	 R	0	 r	 x	2.469	1	 x	 half
5	 T	1	49	 x	1	 l	 left	1.759	1	6	 full
5	 T	1	50	 x	0	 r	 x	2.268	1	6	 full
5	 T	1	51	 x	1	 l	 left	1.529	1	6	 full
5	 T	1	52	 x	1	 l	 right	1.581	1	1.7	 full
5	 T	1	53	 L	0	 r	 x	1.92	1	 x	 half
5	 T	1	54	 R	0	 r	 x	2.219	1	 x	 half
5	 T	1	55	 x	0	 r	 x	2.299	1	1.7	 full
5	 T	1	56	 L	1	 l	 left	1.66	1	 x	 half
5	 T	1	57	 x	1	 l	 left	1.57	1	6	 full
5	 T	1	58	 x	1	 l	 left	1.613	1	6	 full
5	 T	1	59	 R	1	 l	 right	1.665	1	 x	 half
5	 T	1	60	 x	1	 l	 right	1.629	1	6	 full
5	 T	1	61	 x	0	 r	 x	1.968	1	1.7	 full
5	 T	1	62	 x	1	 l	 right	1.548	1	6	 full
5	 T	1	63	 x	1	 r	 right	1.919	0	1.7	 full
5	 T	1	64	 x	1	 l	 left	1.557	1	6	 full
5	 T	1	65	 x	1	 l	 right	1.559	1	6	 full
5	 T	1	66	 x	1	 r	 right	2.569	0	1.7	 full
5	 T	1	67	 L	1	 r	 right	2.398	0	 x	 half
5	 T	1	68	 x	0	 l	 x	3.078	0	1.7	 full
5	 T	1	69	 x	1	 r	 right	2.258	0	1.7	 full
5	 T	1	70	 x	0	 r	 x	2.054	1	1.7	 full
5	 T	1	71	 x	1	 l	 right	1.897	1	1.7	 full
5	 T	1	72	 R	1	 l	 right	1.869	1	 x	 half
5	 T	1	73	 L	1	 l	 left	1.61	1	 x	 half
5	 T	1	74	 L	1	 l	 right	2.027	1	 x	 half
5	 T	1	75	 x	1	 l	 left	2.548	1	1.7	 full
5	 T	1	76	 x	1	 l	 right	1.562	1	6	 full
5	 T	1	77	 x	1	 r	 left	2.213	0	1.7	 full
5	 T	1	78	 x	0	 r	 x	2.264	1	6	 full
5	 T	1	79	 x	0	 r	 x	2.687	1	1.7	 full
5	 T	1	80	 x	1	 l	 left	1.559	1	6	 full
5	 T	1	81	 x	0	 r	 x	1.768	1	6	 full
5	 T	1	82	 x	0	 r	 x	1.641	1	6	 full
5	 T	1	83	 L	1	 l	 left	1.849	1	 x	 half
5	 T	1	84	 L	0	 r	 x	1.769	1	 x	 half
5	 T	1	85	 x	0	 r	 x	1.699	1	6	 full
5	 T	1	86	 L	1	 l	 left	1.789	1	 x	 half
5	 T	1	87	 x	0	 r	 x	1.989	1	1.7	 full
5	 T	1	88	 x	0	 r	 x	2.287	1	1.7	 full
5	 T	1	89	 x	0	 r	 x	2.029	1	1.7	 full
5	 T	1	90	 x	1	 l	 left	1.534	1	6	 full
5	 T	1	91	 R	1	 r	 left	1.778	0	 x	 half
5	 T	1	92	 x	0	 r	 x	1.707	1	6	 full
5	 T	1	93	 R	0	 r	 x	2.216	1	 x	 half
5	 T	1	94	 R	0	 r	 x	2.057	1	 x	 half
5	 T	1	95	 x	1	 l	 right	1.706	1	6	 full
5	 T	1	96	 x	0	 r	 x	1.831	1	6	 full
5	 T	1	97	 x	0	 r	 x	2.408	1	1.7	 full
5	 T	1	98	 x	0	 r	 x	2.302	1	1.7	 full
5	 T	1	99	 x	0	 r	 x	1.638	1	6	 full
5	 T	1	100	 x	0	 r	 x	2.259	1	1.7	 full
5	 T	1	101	 x	1	 r	 right	2.114	0	1.7	 full
5	 T	1	102	 x	1	 l	 right	2.116	1	1.7	 full
5	 T	1	103	 x	0	 r	 x	2.638	1	1.7	 full
5	 T	1	104	 x	1	 r	 right	2.168	0	1.7	 full
5	 T	1	105	 R	1	 r	 left	2.67	0	 x	 half
5	 T	1	106	 L	0	 r	 x	2.356	1	 x	 half
5	 T	1	107	 x	1	 l	 right	1.646	1	6	 full
5	 T	1	108	 x	0	 r	 x	1.879	1	6	 full
5	 T	1	109	 L	1	 l	 right	2.038	1	 x	 half
5	 T	1	110	 x	1	 r	 left	2.218	0	1.7	 full
5	 T	1	111	 x	0	 r	 x	2.544	1	1.7	 full
5	 T	1	112	 L	1	 l	 left	1.643	1	 x	 half
5	 T	1	113	 L	0	 r	 x	2.47	1	 x	 half
5	 T	1	114	 x	0	 r	 x	2.377	1	1.7	 full
5	 T	1	115	 x	0	 r	 x	1.994	1	6	 full
5	 T	1	116	 x	0	 r	 x	2.188	1	1.7	 full
5	 T	1	117	 R	0	 r	 x	2.158	1	 x	 half
5	 T	1	118	 x	0	 r	 x	1.64	1	6	 full
5	 T	1	119	 x	1	 l	 right	1.629	1	6	 full
5	 T	1	120	 x	1	 r	 left	2.188	0	1.7	 full
5	 T	1	121	 x	0	 r	 x	1.748	1	6	 full
5	 T	1	122	 R	0	 r	 x	2.308	1	 x	 half
5	 T	1	123	 R	0	 r	 x	2.519	1	 x	 half
5	 T	1	124	 x	0	 r	 x	1.689	1	6	 full
5	 T	1	125	 R	0	 r	 x	2.133	1	 x	 half
5	 T	1	126	 L	0	 r	 x	2.038	1	 x	 half
5	 T	1	127	 R	0	 r	 x	1.509	1	 x	 half
5	 T	1	128	 x	0	 r	 x	1.63	1	6	 full
5	 T	1	129	 x	1	 l	 left	1.729	1	6	 full
5	 T	1	130	 x	0	 r	 x	2.345	1	1.7	 full
5	 T	1	131	 x	1	 l	 right	1.607	1	6	 full
5	 T	1	132	 x	0	 r	 x	1.85	1	6	 full
5	 T	1	133	 x	1	 r	 left	2.358	0	1.7	 full
5	 T	1	134	 x	0	 r	 x	2.297	1	1.7	 full
5	 T	1	135	 x	0	 r	 x	1.69	1	6	 full
5	 T	1	136	 x	1	 r	 left	2.409	0	1.7	 full
5	 T	1	137	 R	0	 r	 x	2.478	1	 x	 half
5	 T	1	138	 R	1	 l	 left	2.239	1	 x	 half
5	 T	1	139	 x	0	 r	 x	1.899	1	1.7	 full
5	 T	1	140	 R	1	 r	 left	2.039	0	 x	 half
5	 T	1	141	 L	0	 r	 x	2.697	1	 x	 half
5	 T	1	142	 x	1	 r	 right	2.434	0	1.7	 full
5	 T	1	143	 x	0	 r	 x	1.64	1	6	 full
5	 T	1	144	 x	1	 l	 right	1.72	1	6	 full
5	 T	1	145	 x	0	 r	 x	1.669	1	6	 full
5	 T	1	146	 x	0	 r	 x	1.664	1	6	 full
5	 T	1	147	 L	0	 r	 x	2.288	1	 x	 half
5	 T	1	148	 R	1	 l	 right	1.589	1	 x	 half
5	 T	1	149	 x	0	 l	 x	2.378	0	1.7	 full
5	 T	1	150	 x	1	 l	 left	2.198	1	1.7	 full
5	 T	1	151	 L	1	 r	 right	2.218	0	 x	 half
5	 T	1	152	 x	0	 r	 x	1.607	1	6	 full
5	 T	1	153	 x	1	 r	 left	2.087	0	1.7	 full
5	 T	1	154	 x	1	 l	 left	1.945	1	6	 full
5	 T	1	155	 x	1	 r	 left	2.378	0	1.7	 full
5	 T	1	156	 L	1	 l	 left	1.889	1	 x	 half
5	 T	1	157	 x	0	 r	 x	1.613	1	6	 full
5	 T	1	158	 x	0	 r	 x	2.32	1	1.7	 full
5	 T	1	159	 L	1	 l	 left	1.586	1	 x	 half
5	 T	1	160	 x	0	 r	 x	1.669	1	6	 full
5	 T	1	161	 x	1	 l	 left	1.601	1	6	 full
5	 T	1	162	 x	0	 r	 x	2.2	1	1.7	 full
5	 T	1	163	 L	1	 l	 left	1.709	1	 x	 half
5	 T	1	164	 x	0	 r	 x	2.558	1	1.7	 full
5	 T	1	165	 x	1	 l	 left	1.7	1	6	 full
5	 T	1	166	 L	1	 l	 right	2.177	1	 x	 half
5	 T	1	167	 x	0	 r	 x	2.349	1	1.7	 full
5	 T	1	168	 R	1	 l	 left	1.819	1	 x	 half
5	 T	1	169	 x	0	 r	 x	2.226	1	6	 full
5	 T	1	170	 x	1	 r	 left	2.103	0	1.7	 full
5	 T	1	171	 x	1	 l	 left	1.584	1	6	 full
5	 T	1	172	 R	0	 r	 x	2.371	1	 x	 half
5	 T	1	173	 x	0	 r	 x	2.159	1	1.7	 full
5	 T	1	174	 R	1	 l	 right	2.129	1	 x	 half
5	 T	1	175	 x	1	 l	 right	1.708	1	1.7	 full
5	 T	1	176	 x	0	 r	 x	2.058	1	1.7	 full
5	 T	1	177	 L	0	 r	 x	2.009	1	 x	 half
5	 T	1	178	 x	0	 r	 x	1.739	1	1.7	 full
5	 T	1	179	 x	0	 r	 x	1.784	1	1.7	 full
5	 T	1	180	 x	1	 l	 left	1.719	1	6	 full
5	 T	1	181	 x	1	 l	 right	1.628	1	6	 full
5	 T	1	182	 L	0	 r	 x	2.209	1	 x	 half
5	 T	1	183	 x	0	 r	 x	1.749	1	6	 full
5	 T	1	184	 L	0	 r	 x	1.959	1	 x	 half
5	 T	1	185	 L	0	 r	 x	2.247	1	 x	 half
5	 T	1	186	 x	1	 l	 left	2.439	1	1.7	 full
5	 T	1	187	 x	1	 r	 left	2.06	0	1.7	 full
5	 T	1	188	 x	1	 l	 right	1.615	1	6	 full
5	 T	1	189	 x	0	 r	 x	2.176	1	1.7	 full
5	 T	1	190	 x	1	 l	 left	1.758	1	6	 full
5	 T	1	191	 R	0	 r	 x	2.659	1	 x	 half
5	 T	1	192	 R	0	 r	 x	2.258	1	 x	 half
5	 T	1	193	 x	0	 r	 x	2.39	1	1.7	 full
5	 T	1	194	 x	1	 l	 left	1.869	1	1.7	 full
5	 T	1	195	 x	0	 r	 x	1.729	1	6	 full
5	 T	1	196	 R	1	 l	 right	1.589	1	 x	 half
5	 T	1	197	 x	1	 l	 left	1.539	1	6	 full
5	 T	1	198	 x	0	 r	 x	1.73	1	6	 full
5	 T	1	199	 x	0	 r	 x	1.689	1	6	 full
5	 T	1	200	 x	0	 r	 x	2.226	1	1.7	 full
5	 T	1	201	 x	1	 l	 right	1.609	1	6	 full
5	 T	1	202	 R	0	 r	 x	2.302	1	 x	 half
5	 T	1	203	 L	1	 l	 left	1.528	1	 x	 half
5	 T	1	204	 x	1	 l	 left	1.604	1	6	 full
5	 T	1	205	 x	0	 r	 x	1.816	1	6	 full
5	 T	1	206	 R	1	 l	 right	2	1	 x	 half
5	 T	1	207	 x	1	 l	 right	2.698	1	1.7	 full
5	 T	1	208	 x	1	 l	 right	1.688	1	1.7	 full
5	 T	1	209	 L	0	 r	 x	2.009	1	 x	 half
5	 T	1	210	 x	1	 r	 left	2.297	0	1.7	 full
5	 T	1	211	 x	0	 r	 x	2.129	1	1.7	 full
5	 T	1	212	 x	1	 l	 right	1.621	1	6	 full
5	 T	1	213	 R	1	 l	 right	1.569	1	 x	 half
5	 T	1	214	 x	1	 l	 right	1.53	1	6	 full
5	 T	1	215	 x	1	 l	 left	1.808	1	1.7	 full
5	 T	1	216	 x	0	 r	 x	1.84	1	6	 full
5	 T	1	217	 x	0	 r	 x	1.949	1	6	 full
5	 T	1	218	 x	1	 r	 right	1.86	0	1.7	 full
5	 T	1	219	 x	0	 r	 x	1.698	1	6	 full
5	 T	1	220	 x	1	 l	 left	1.599	1	6	 full
5	 T	1	221	 x	1	 l	 right	1.898	1	1.7	 full
5	 T	1	222	 x	1	 r	 right	2.029	0	1.7	 full
5	 T	1	223	 R	1	 l	 right	1.706	1	 x	 half
5	 T	1	224	 L	0	 r	 x	2.608	1	 x	 half
5	 T	1	225	 L	1	 l	 right	2.428	1	 x	 half
5	 T	1	226	 x	1	 l	 left	1.608	1	6	 full
5	 T	1	227	 R	0	 r	 x	2.209	1	 x	 half
5	 T	1	228	 R	1	 l	 left	1.834	1	 x	 half
5	 T	1	229	 L	1	 l	 left	1.719	1	 x	 half
5	 T	1	230	 L	1	 l	 left	1.6	1	 x	 half
5	 T	1	231	 x	1	 l	 right	1.949	1	1.7	 full
5	 T	1	232	 R	0	 r	 x	1.828	1	 x	 half
5	 T	1	233	 x	1	 l	 left	1.966	1	1.7	 full
5	 T	1	234	 L	0	 r	 x	2.079	1	 x	 half
5	 T	1	235	 x	1	 l	 right	1.712	1	1.7	 full
5	 T	1	236	 x	0	 r	 x	1.959	1	1.7	 full
5	 T	1	237	 L	0	 r	 x	1.749	1	 x	 half
5	 T	1	238	 x	1	 l	 left	1.948	1	1.7	 full
5	 T	1	239	 L	1	 l	 right	2.059	1	 x	 half
5	 T	1	240	 L	1	 l	 right	1.788	1	 x	 half
5	 N	2	1	 x	0	 r	 x	2.404	1	1.7	 full
5	 N	2	2	 x	1	 l	 right	1.597	1	6	 full
5	 N	2	3	 R	0	 r	 x	1.948	1	 x	 half
5	 N	2	4	 L	0	 r	 x	1.968	1	 x	 half
5	 N	2	5	 x	1	 l	 right	1.519	1	6	 full
5	 N	2	6	 x	1	 r	 left	2.11	0	1.7	 full
5	 N	2	7	 L	1	 l	 left	1.718	1	 x	 half
5	 N	2	8	 x	1	 l	 left	1.779	1	1.7	 full
5	 N	2	9	 x	0	 r	 x	1.8	1	6	 full
5	 N	2	10	 x	1	 l	 right	1.578	1	6	 full
5	 N	2	11	 L	0	 r	 x	2.387	1	 x	 half
5	 N	2	12	 x	1	 l	 left	1.626	1	6	 full
5	 N	2	13	 x	0	 r	 x	2.128	1	1.7	 full
5	 N	2	14	 L	1	 l	 left	1.519	1	 x	 half
5	 N	2	15	 L	0	 r	 x	2.597	1	 x	 half
5	 N	2	16	 R	0	 r	 x	2.488	1	 x	 half
5	 N	2	17	 x	0	 r	 x	2.048	1	1.7	 full
5	 N	2	18	 x	1	 l	 left	1.558	1	6	 full
5	 N	2	19	 x	0	 r	 x	2.217	1	1.7	 full
5	 N	2	20	 x	0	 r	 x	2.168	1	1.7	 full
5	 N	2	21	 x	1	 l	 left	1.577	1	6	 full
5	 N	2	22	 L	0	 r	 x	2.069	1	 x	 half
5	 N	2	23	 x	1	 l	 left	2.078	1	1.7	 full
5	 N	2	24	 L	0	 r	 x	2.218	1	 x	 half
5	 N	2	25	 x	1	 l	 left	1.658	1	1.7	 full
5	 N	2	26	 R	0	 r	 x	2.297	1	 x	 half
5	 N	2	27	 x	0	 r	 x	1.689	1	6	 full
5	 N	2	28	 x	0	 r	 x	1.64	1	6	 full
5	 N	2	29	 R	1	 l	 left	1.638	1	 x	 half
5	 N	2	30	 x	0	 r	 x	2.269	1	1.7	 full
5	 N	2	31	 x	0	 r	 x	2.269	1	1.7	 full
5	 N	2	32	 x	1	 l	 right	3.297	1	1.7	 full
5	 N	2	33	 L	0	 r	 x	2.478	1	 x	 half
5	 N	2	34	 L	1	 l	 left	1.629	1	 x	 half
5	 N	2	35	 x	1	 l	 left	1.531	1	6	 full
5	 N	2	36	 R	1	 l	 right	1.519	1	 x	 half
5	 N	2	37	 L	1	 l	 right	1.687	1	 x	 half
5	 N	2	38	 x	1	 l	 right	1.548	1	6	 full
5	 N	2	39	 x	0	 r	 x	1.789	1	6	 full
5	 N	2	40	 x	1	 l	 right	1.635	1	1.7	 full
5	 N	2	41	 x	0	 r	 x	1.73	1	6	 full
5	 N	2	42	 x	1	 l	 right	1.509	1	6	 full
5	 N	2	43	 R	1	 l	 right	1.468	1	 x	 half
5	 N	2	44	 x	0	 r	 x	1.729	1	6	 full
5	 N	2	45	 L	0	 r	 x	2.2	1	 x	 half
5	 N	2	46	 x	1	 l	 right	1.659	1	1.7	 full
5	 N	2	47	 R	1	 l	 right	1.579	1	 x	 half
5	 N	2	48	 L	1	 l	 left	1.689	1	 x	 half
5	 N	2	49	 x	1	 l	 right	1.489	1	6	 full
5	 N	2	50	 x	0	 r	 x	1.677	1	6	 full
5	 N	2	51	 x	1	 l	 right	1.538	1	6	 full
5	 N	2	52	 x	1	 l	 right	1.778	1	1.7	 full
5	 N	2	53	 x	0	 r	 x	1.911	1	1.7	 full
5	 N	2	54	 L	0	 r	 x	2.059	1	 x	 half
5	 N	2	55	 x	1	 l	 left	1.507	1	6	 full
5	 N	2	56	 x	1	 r	 left	2.148	0	1.7	 full
5	 N	2	57	 x	0	 r	 x	2.588	1	1.7	 full
5	 N	2	58	 x	0	 r	 x	2.062	1	1.7	 full
5	 N	2	59	 x	0	 r	 x	2.159	1	1.7	 full
5	 N	2	60	 x	0	 r	 x	1.811	1	6	 full
5	 N	2	61	 x	1	 l	 left	1.579	1	6	 full
5	 N	2	62	 R	0	 r	 x	2.151	1	 x	 half
5	 N	2	63	 x	1	 l	 right	2.229	1	1.7	 full
5	 N	2	64	 x	1	 r	 left	2.428	0	1.7	 full
5	 N	2	65	 x	0	 r	 x	1.647	1	6	 full
5	 N	2	66	 x	0	 r	 x	1.55	1	6	 full
5	 N	2	67	 R	0	 r	 x	2.138	1	 x	 half
5	 N	2	68	 x	0	 r	 x	2.381	1	1.7	 full
5	 N	2	69	 x	1	 r	 right	1.888	0	1.7	 full
5	 N	2	70	 L	1	 r	 right	2.307	0	 x	 half
5	 N	2	71	 L	0	 r	 x	2.693	1	 x	 half
5	 N	2	72	 R	1	 l	 right	1.682	1	 x	 half
5	 N	2	73	 x	1	 l	 left	2.237	1	1.7	 full
5	 N	2	74	 x	1	 l	 right	2.516	1	1.7	 full
5	 N	2	75	 x	0	 r	 x	2.597	1	1.7	 full
5	 N	2	76	 R	0	 r	 x	2.21	1	 x	 half
5	 N	2	77	 x	0	 r	 x	2.358	1	1.7	 full
5	 N	2	78	 x	0	 r	 x	1.669	1	6	 full
5	 N	2	79	 x	0	 r	 x	1.601	1	6	 full
5	 N	2	80	 x	1	 l	 left	1.595	1	6	 full
5	 N	2	81	 x	0	 r	 x	1.867	1	6	 full
5	 N	2	82	 x	1	 l	 right	1.748	1	1.7	 full
5	 N	2	83	 x	1	 l	 left	1.938	1	1.7	 full
5	 N	2	84	 x	1	 l	 left	1.589	1	6	 full
5	 N	2	85	 x	1	 l	 right	1.588	1	6	 full
5	 N	2	86	 x	0	 r	 x	1.608	1	6	 full
5	 N	2	87	 x	0	 r	 x	2.467	1	1.7	 full
5	 N	2	88	 x	0	 r	 x	1.588	1	6	 full
5	 N	2	89	 x	0	 r	 x	2.485	1	1.7	 full
5	 N	2	90	 x	1	 l	 left	1.669	1	6	 full
5	 N	2	91	 R	1	 l	 right	1.559	1	 x	 half
5	 N	2	92	 x	1	 r	 right	2.016	0	1.7	 full
5	 N	2	93	 x	0	 r	 x	1.975	1	1.7	 full
5	 N	2	94	 x	1	 l	 left	1.859	1	1.7	 full
5	 N	2	95	 x	1	 l	 right	1.508	1	6	 full
5	 N	2	96	 x	0	 r	 x	1.749	1	6	 full
5	 N	2	97	 x	1	 r	 right	2.438	0	1.7	 full
5	 N	2	98	 x	0	 r	 x	2.55	1	1.7	 full
5	 N	2	99	 x	1	 l	 right	1.55	1	6	 full
5	 N	2	100	 x	1	 l	 right	1.69	1	1.7	 full
5	 N	2	101	 L	1	 l	 left	1.629	1	 x	 half
5	 N	2	102	 x	1	 l	 left	1.519	1	6	 full
5	 N	2	103	 x	0	 r	 x	1.839	1	6	 full
5	 N	2	104	 x	0	 r	 x	1.618	1	6	 full
5	 N	2	105	 R	0	 r	 x	2.327	1	 x	 half
5	 N	2	106	 x	0	 r	 x	2.449	1	1.7	 full
5	 N	2	107	 x	1	 l	 right	1.738	1	1.7	 full
5	 N	2	108	 x	0	 r	 x	2.348	1	6	 full
5	 N	2	109	 x	0	 r	 x	1.667	1	6	 full
5	 N	2	110	 R	1	 l	 left	1.844	1	 x	 half
5	 N	2	111	 x	1	 l	 right	1.819	1	1.7	 full
5	 N	2	112	 R	0	 r	 x	2.256	1	 x	 half
5	 N	2	113	 x	0	 r	 x	1.701	1	6	 full
5	 N	2	114	 x	1	 l	 left	1.537	1	6	 full
5	 N	2	115	 x	0	 r	 x	2.498	1	1.7	 full
5	 N	2	116	 x	0	 r	 x	1.645	1	6	 full
5	 N	2	117	 L	0	 r	 x	2.767	1	 x	 half
5	 N	2	118	 x	0	 r	 x	1.807	1	6	 full
5	 N	2	119	 x	0	 r	 x	2.317	1	1.7	 full
5	 N	2	120	 R	0	 r	 x	1.978	1	 x	 half
5	 N	2	121	 R	0	 r	 x	2.176	1	 x	 half
5	 N	2	122	 x	0	 r	 x	2.408	1	1.7	 full
5	 N	2	123	 x	1	 l	 left	2.137	1	1.7	 full
5	 N	2	124	 x	1	 r	 left	2.038	0	1.7	 full
5	 N	2	125	 L	1	 l	 left	1.62	1	 x	 half
5	 N	2	126	 x	1	 l	 right	1.728	1	6	 full
5	 N	2	127	 x	0	 r	 x	2.421	1	1.7	 full
5	 N	2	128	 R	0	 r	 x	2.547	1	 x	 half
5	 N	2	129	 x	0	 r	 x	1.685	1	6	 full
5	 N	2	130	 L	0	 r	 x	2.418	1	 x	 half
5	 N	2	131	 x	0	 r	 x	2.496	1	1.7	 full
5	 N	2	132	 R	0	 r	 x	2.528	1	 x	 half
5	 N	2	133	 R	1	 r	 left	2.598	0	 x	 half
5	 N	2	134	 L	0	 r	 x	2.425	1	 x	 half
5	 N	2	135	 x	0	 r	 x	1.678	1	6	 full
5	 N	2	136	 x	0	 r	 x	1.543	1	6	 full
5	 N	2	137	 x	0	 x	 x	2.088	1	6	 full
5	 N	2	138	 x	1	 l	 left	2.167	1	1.7	 full
5	 N	2	139	 x	1	 l	 right	1.969	1	6	 full
5	 N	2	140	 x	1	 l	 right	1.697	1	6	 full
5	 N	2	141	 x	0	 r	 x	3.197	1	1.7	 full
5	 N	2	142	 x	1	 l	 left	2.139	1	1.7	 full
5	 N	2	143	 L	1	 l	 left	2.007	1	 x	 half
5	 N	2	144	 R	0	 r	 x	3.007	1	 x	 half
5	 N	2	145	 x	0	 r	 x	3.242	1	1.7	 full
5	 N	2	146	 L	0	 r	 x	3.008	1	 x	 half
5	 N	2	147	 x	1	 l	 right	1.939	1	1.7	 full
5	 N	2	148	 L	1	 l	 right	1.726	1	 x	 half
5	 N	2	149	 L	1	 l	 right	1.729	1	 x	 half
5	 N	2	150	 R	0	 r	 x	2.219	1	 x	 half
5	 N	2	151	 x	0	 r	 x	2.138	1	1.7	 full
5	 N	2	152	 x	1	 l	 left	1.559	1	6	 full
5	 N	2	153	 x	1	 l	 right	1.825	1	1.7	 full
5	 N	2	154	 x	1	 l	 right	1.529	1	6	 full
5	 N	2	155	 R	1	 l	 left	1.731	1	 x	 half
5	 N	2	156	 L	1	 r	 right	2.288	0	 x	 half
5	 N	2	157	 x	1	 l	 left	1.651	1	6	 full
5	 N	2	158	 x	0	 r	 x	2.541	1	1.7	 full
5	 N	2	159	 x	0	 r	 x	2.167	1	1.7	 full
5	 N	2	160	 R	1	 r	 left	1.719	0	 x	 half
5	 N	2	161	 L	0	 r	 x	2.378	1	 x	 half
5	 N	2	162	 L	1	 l	 left	1.549	1	 x	 half
5	 N	2	163	 x	0	 r	 x	1.917	1	1.7	 full
5	 N	2	164	 R	1	 l	 right	1.741	1	 x	 half
5	 N	2	165	 x	1	 l	 right	1.539	1	6	 full
5	 N	2	166	 x	0	 r	 x	1.812	1	6	 full
5	 N	2	167	 x	0	 r	 x	2.098	1	1.7	 full
5	 N	2	168	 L	0	 r	 x	1.828	1	 x	 half
5	 N	2	169	 x	0	 r	 x	1.818	1	6	 full
5	 N	2	170	 x	0	 r	 x	1.657	1	6	 full
5	 N	2	171	 L	0	 r	 x	2.237	1	 x	 half
5	 N	2	172	 x	0	 r	 x	1.589	1	6	 full
5	 N	2	173	 x	1	 l	 left	1.628	1	6	 full
5	 N	2	174	 R	1	 r	 left	2.489	0	 x	 half
5	 N	2	175	 x	1	 l	 left	1.758	1	6	 full
5	 N	2	176	 x	1	 l	 left	1.708	1	6	 full
5	 N	2	177	 R	0	 r	 x	2.787	1	 x	 half
5	 N	2	178	 x	0	 r	 x	2.598	1	1.7	 full
5	 N	2	179	 x	1	 l	 left	1.618	1	6	 full
5	 N	2	180	 R	1	 l	 right	1.578	1	 x	 half
5	 N	2	181	 x	0	 r	 x	1.757	1	6	 full
5	 N	2	182	 R	1	 l	 right	1.577	1	 x	 half
5	 N	2	183	 x	1	 l	 left	1.527	1	6	 full
5	 N	2	184	 R	1	 l	 right	1.539	1	 x	 half
5	 N	2	185	 x	0	 r	 x	1.56	1	6	 full
5	 N	2	186	 x	1	 r	 left	1.817	0	1.7	 full
5	 N	2	187	 x	0	 r	 x	2.578	1	1.7	 full
5	 N	2	188	 x	0	 r	 x	1.618	1	6	 full
5	 N	2	189	 x	1	 l	 left	2.219	1	1.7	 full
5	 N	2	190	 x	1	 r	 left	2.217	0	1.7	 full
5	 N	2	191	 L	1	 l	 left	1.56	1	 x	 half
5	 N	2	192	 x	0	 r	 x	1.74	1	6	 full
5	 N	2	193	 x	1	 l	 right	1.649	1	6	 full
5	 N	2	194	 L	1	 l	 right	2.374	1	 x	 half
5	 N	2	195	 L	1	 l	 right	1.698	1	 x	 half
5	 N	2	196	 R	1	 l	 right	1.604	1	 x	 half
5	 N	2	197	 R	0	 r	 x	2.298	1	 x	 half
5	 N	2	198	 x	1	 l	 left	1.708	1	6	 full
5	 N	2	199	 x	0	 r	 x	1.687	1	6	 full
5	 N	2	200	 x	0	 r	 x	2.238	1	1.7	 full
5	 N	2	201	 x	0	 r	 x	1.558	1	6	 full
5	 N	2	202	 x	1	 l	 left	1.709	1	1.7	 full
5	 N	2	203	 L	0	 r	 x	2.038	1	 x	 half
5	 N	2	204	 R	0	 r	 x	2.185	1	 x	 half
5	 N	2	205	 x	1	 l	 left	1.768	1	1.7	 full
5	 N	2	206	 L	1	 l	 left	1.508	1	 x	 half
5	 N	2	207	 x	0	 r	 x	1.748	1	6	 full
5	 N	2	208	 L	0	 r	 x	2.468	1	 x	 half
5	 N	2	209	 x	1	 r	 right	2.237	0	1.7	 full
5	 N	2	210	 x	0	 r	 x	2.596	1	1.7	 full
5	 N	2	211	 L	1	 l	 left	1.731	1	 x	 half
5	 N	2	212	 R	0	 r	 x	2.196	1	 x	 half
5	 N	2	213	 x	1	 l	 right	1.619	1	6	 full
5	 N	2	214	 R	0	 r	 x	2.006	1	 x	 half
5	 N	2	215	 x	0	 r	 x	2.159	1	1.7	 full
5	 N	2	216	 L	1	 l	 right	1.795	1	 x	 half
5	 N	2	217	 L	0	 r	 x	2.427	1	 x	 half
5	 N	2	218	 x	0	 r	 x	2.483	1	1.7	 full
5	 N	2	219	 x	0	 r	 x	2.045	1	1.7	 full
5	 N	2	220	 L	0	 r	 x	2.298	1	 x	 half
5	 N	2	221	 x	1	 l	 left	1.858	1	1.7	 full
5	 N	2	222	 x	0	 r	 x	2.306	1	1.7	 full
5	 N	2	223	 x	0	 r	 x	1.604	1	6	 full
5	 N	2	224	 L	1	 l	 left	1.609	1	 x	 half
5	 N	2	225	 L	0	 r	 x	2.607	1	 x	 half
5	 N	2	226	 L	1	 l	 left	1.54	1	 x	 half
5	 N	2	227	 L	1	 l	 left	1.586	1	 x	 half
5	 N	2	228	 L	1	 l	 right	1.705	1	 x	 half
5	 N	2	229	 x	1	 l	 right	1.445	1	6	 full
5	 N	2	230	 x	1	 l	 right	1.488	1	6	 full
5	 N	2	231	 x	0	 r	 x	1.723	1	6	 full
5	 N	2	232	 R	1	 l	 right	1.53	1	 x	 half
5	 N	2	233	 x	1	 l	 left	1.522	1	6	 full
5	 N	2	234	 x	1	 l	 right	1.958	1	1.7	 full
5	 N	2	235	 x	1	 l	 right	2.465	1	1.7	 full
5	 N	2	236	 x	1	 l	 right	1.598	1	6	 full
5	 N	2	237	 x	1	 l	 right	1.897	1	1.7	 full
5	 N	2	238	 x	1	 l	 right	1.547	1	1.7	 full
5	 N	2	239	 x	0	 r	 x	3.068	1	1.7	 full
5	 N	2	240	 x	1	 r	 left	2.759	0	1.7	 full
6	 T	2	1	 x	0	 r	 x	1.878	1	6	 full
6	 T	2	2	 x	0	 r	 x	1.508	1	6	 full
6	 T	2	3	 x	0	 r	 x	1.535	1	1.7	 full
6	 T	2	4	 L	1	 l	 left	1.409	1	 x	 half
6	 T	2	5	 x	0	 r	 x	1.479	1	6	 full
6	 T	2	6	 x	1	 r	 right	1.499	0	1.7	 full
6	 T	2	7	 x	0	 r	 x	1.599	1	1.7	 full
6	 T	2	8	 R	0	 r	 x	1.628	1	 x	 half
6	 T	2	9	 x	1	 l	 left	1.52	1	6	 full
6	 T	2	10	 x	1	 l	 left	1.459	1	6	 full
6	 T	2	11	 R	0	 l	 x	1.679	0	 x	 half
6	 T	2	12	 x	1	 r	 left	1.604	0	1.7	 full
6	 T	2	13	 x	0	 r	 x	1.835	1	1.7	 full
6	 T	2	14	 x	0	 r	 x	1.7	1	1.7	 full
6	 T	2	15	 R	1	 l	 left	1.628	1	 x	 half
6	 T	2	16	 x	1	 l	 right	1.499	1	6	 full
6	 T	2	17	 R	0	 r	 x	1.678	1	 x	 half
6	 T	2	18	 x	0	 r	 x	1.749	1	1.7	 full
6	 T	2	19	 x	0	 r	 x	1.659	1	1.7	 full
6	 T	2	20	 R	0	 r	 x	1.579	1	 x	 half
6	 T	2	21	 x	1	 l	 right	1.641	1	6	 full
6	 T	2	22	 L	1	 l	 left	1.51	1	 x	 half
6	 T	2	23	 L	1	 l	 right	1.71	1	 x	 half
6	 T	2	24	 x	0	 r	 x	1.6	1	1.7	 full
6	 T	2	25	 L	1	 l	 left	1.599	1	 x	 half
6	 T	2	26	 x	0	 r	 x	1.55	1	6	 full
6	 T	2	27	 x	0	 r	 x	1.539	1	6	 full
6	 T	2	28	 x	1	 l	 left	1.529	1	1.7	 full
6	 T	2	29	 R	0	 r	 x	1.739	1	 x	 half
6	 T	2	30	 x	1	 l	 right	1.599	1	6	 full
6	 T	2	31	 x	1	 r	 left	1.81	0	1.7	 full
6	 T	2	32	 x	1	 l	 left	1.508	1	6	 full
6	 T	2	33	 x	0	 r	 x	1.65	1	1.7	 full
6	 T	2	34	 x	1	 l	 right	1.441	1	6	 full
6	 T	2	35	 x	0	 r	 x	1.509	1	6	 full
6	 T	2	36	 x	0	 r	 x	1.519	1	6	 full
6	 T	2	37	 x	1	 l	 right	1.528	1	1.7	 full
6	 T	2	38	 x	0	 r	 x	1.54	1	6	 full
6	 T	2	39	 x	1	 l	 left	1.518	1	6	 full
6	 T	2	40	 x	1	 l	 right	1.45	1	6	 full
6	 T	2	41	 L	1	 l	 right	1.549	1	 x	 half
6	 T	2	42	 L	1	 l	 left	1.539	1	 x	 half
6	 T	2	43	 x	0	 r	 x	1.679	1	1.7	 full
6	 T	2	44	 x	0	 r	 x	1.578	1	6	 full
6	 T	2	45	 L	1	 l	 left	1.719	1	 x	 half
6	 T	2	46	 x	1	 l	 left	1.489	1	1.7	 full
6	 T	2	47	 x	0	 r	 x	1.659	1	1.7	 full
6	 T	2	48	 L	1	 l	 left	1.479	1	 x	 half
6	 T	2	49	 x	0	 r	 x	1.678	1	1.7	 full
6	 T	2	50	 R	1	 l	 right	1.439	1	 x	 half
6	 T	2	51	 x	0	 r	 x	1.599	1	6	 full
6	 T	2	52	 x	0	 r	 x	1.649	1	6	 full
6	 T	2	53	 x	0	 l	 x	1.738	0	1.7	 full
6	 T	2	54	 x	1	 l	 left	1.579	1	1.7	 full
6	 T	2	55	 R	1	 r	 left	1.658	0	 x	 half
6	 T	2	56	 R	0	 r	 x	2.709	1	 x	 half
6	 T	2	57	 R	1	 l	 right	1.479	1	 x	 half
6	 T	2	58	 R	1	 l	 right	1.538	1	 x	 half
6	 T	2	59	 x	0	 r	 x	1.619	1	6	 full
6	 T	2	60	 R	1	 r	 left	1.699	0	 x	 half
6	 T	2	61	 x	1	 l	 right	1.526	1	6	 full
6	 T	2	62	 x	0	 r	 x	1.623	1	6	 full
6	 T	2	63	 x	1	 l	 right	1.419	1	6	 full
6	 T	2	64	 L	1	 l	 left	1.519	1	 x	 half
6	 T	2	65	 R	0	 r	 x	1.849	1	 x	 half
6	 T	2	66	 R	0	 r	 x	1.729	1	 x	 half
6	 T	2	67	 R	1	 l	 right	1.449	1	 x	 half
6	 T	2	68	 x	1	 l	 right	1.725	1	1.7	 full
6	 T	2	69	 L	0	 r	 x	1.749	1	 x	 half
6	 T	2	70	 x	1	 l	 right	1.499	1	6	 full
6	 T	2	71	 L	0	 r	 x	1.64	1	 x	 half
6	 T	2	72	 x	0	 r	 x	1.64	1	1.7	 full
6	 T	2	73	 L	0	 r	 x	1.599	1	 x	 half
6	 T	2	74	 x	1	 r	 right	1.508	0	1.7	 full
6	 T	2	75	 x	0	 r	 x	1.618	1	1.7	 full
6	 T	2	76	 x	0	 r	 x	1.689	1	1.7	 full
6	 T	2	77	 L	0	 r	 x	1.81	1	 x	 half
6	 T	2	78	 L	1	 l	 right	1.87	1	 x	 half
6	 T	2	79	 x	0	 r	 x	1.629	1	1.7	 full
6	 T	2	80	 x	1	 l	 left	1.687	1	1.7	 full
6	 T	2	81	 x	1	 l	 right	1.708	1	1.7	 full
6	 T	2	82	 R	0	 r	 x	1.649	1	 x	 half
6	 T	2	83	 x	1	 l	 left	1.539	1	6	 full
6	 T	2	84	 L	0	 r	 x	1.868	1	 x	 half
6	 T	2	85	 x	1	 l	 left	1.768	1	1.7	 full
6	 T	2	86	 x	1	 r	 right	1.659	0	1.7	 full
6	 T	2	87	 L	0	 r	 x	1.689	1	 x	 half
6	 T	2	88	 L	1	 l	 left	1.578	1	 x	 half
6	 T	2	89	 x	1	 l	 right	1.609	1	1.7	 full
6	 T	2	90	 x	0	 r	 x	1.629	1	6	 full
6	 T	2	91	 x	1	 l	 right	1.518	1	6	 full
6	 T	2	92	 x	1	 l	 left	1.557	1	6	 full
6	 T	2	93	 x	0	 r	 x	1.609	1	1.7	 full
6	 T	2	94	 x	0	 r	 x	1.579	1	6	 full
6	 T	2	95	 L	1	 l	 left	1.509	1	 x	 half
6	 T	2	96	 x	1	 l	 left	1.616	1	1.7	 full
6	 T	2	97	 x	1	 l	 left	1.498	1	6	 full
6	 T	2	98	 x	0	 r	 x	1.688	1	1.7	 full
6	 T	2	99	 L	1	 l	 left	1.429	1	 x	 half
6	 T	2	100	 L	1	 l	 left	1.509	1	 x	 half
6	 T	2	101	 x	1	 l	 right	1.538	1	1.7	 full
6	 T	2	102	 x	0	 r	 x	1.668	1	1.7	 full
6	 T	2	103	 L	0	 r	 x	1.678	1	 x	 half
6	 T	2	104	 x	1	 l	 right	1.619	1	1.7	 full
6	 T	2	105	 L	0	 r	 x	1.708	1	 x	 half
6	 T	2	106	 x	1	 l	 right	1.539	1	1.7	 full
6	 T	2	107	 L	1	 l	 left	1.469	1	 x	 half
6	 T	2	108	 x	1	 l	 left	1.747	1	6	 full
6	 T	2	109	 x	0	 r	 x	1.609	1	6	 full
6	 T	2	110	 x	1	 l	 left	1.538	1	6	 full
6	 T	2	111	 R	0	 r	 x	1.599	1	 x	 half
6	 T	2	112	 x	1	 l	 right	1.643	1	1.7	 full
6	 T	2	113	 L	0	 r	 x	1.689	1	 x	 half
6	 T	2	114	 x	1	 l	 right	1.542	1	6	 full
6	 T	2	115	 x	0	 r	 x	1.54	1	6	 full
6	 T	2	116	 x	0	 r	 x	1.568	1	6	 full
6	 T	2	117	 R	0	 r	 x	1.598	1	 x	 half
6	 T	2	118	 R	0	 r	 x	1.683	1	 x	 half
6	 T	2	119	 L	0	 r	 x	1.887	1	 x	 half
6	 T	2	120	 x	0	 r	 x	2.079	1	6	 full
6	 T	2	121	 x	0	 r	 x	1.55	1	6	 full
6	 T	2	122	 x	0	 r	 x	1.677	1	6	 full
6	 T	2	123	 x	1	 l	 right	1.59	1	6	 full
6	 T	2	124	 x	1	 l	 right	1.569	1	1.7	 full
6	 T	2	125	 L	0	 r	 x	1.687	1	 x	 half
6	 T	2	126	 x	1	 l	 left	1.588	1	1.7	 full
6	 T	2	127	 L	1	 l	 left	1.578	1	 x	 half
6	 T	2	128	 x	0	 r	 x	1.728	1	1.7	 full
6	 T	2	129	 x	0	 r	 x	1.668	1	1.7	 full
6	 T	2	130	 x	1	 r	 left	1.62	0	1.7	 full
6	 T	2	131	 R	0	 r	 x	1.7	1	 x	 half
6	 T	2	132	 L	1	 l	 right	2.317	1	 x	 half
6	 T	2	133	 x	1	 l	 right	1.607	1	1.7	 full
6	 T	2	134	 L	0	 r	 x	1.748	1	 x	 half
6	 T	2	135	 x	1	 l	 right	1.548	1	1.7	 full
6	 T	2	136	 x	1	 l	 right	1.439	1	6	 full
6	 T	2	137	 x	0	 r	 x	1.581	1	6	 full
6	 T	2	138	 x	0	 r	 x	2.003	1	1.7	 full
6	 T	2	139	 L	1	 l	 right	1.508	1	 x	 half
6	 T	2	140	 x	1	 l	 right	1.548	1	6	 full
6	 T	2	141	 R	0	 r	 x	1.586	1	 x	 half
6	 T	2	142	 x	0	 r	 x	1.648	1	6	 full
6	 T	2	143	 R	0	 r	 x	1.698	1	 x	 half
6	 T	2	144	 x	1	 l	 left	1.649	1	1.7	 full
6	 T	2	145	 L	0	 r	 x	1.59	1	 x	 half
6	 T	2	146	 L	1	 l	 right	1.579	1	 x	 half
6	 T	2	147	 L	0	 r	 x	1.549	1	 x	 half
6	 T	2	148	 x	1	 l	 left	1.518	1	6	 full
6	 T	2	149	 L	0	 r	 x	1.649	1	 x	 half
6	 T	2	150	 x	1	 l	 right	1.709	1	1.7	 full
6	 T	2	151	 x	1	 l	 left	1.558	1	1.7	 full
6	 T	2	152	 x	0	 r	 x	1.638	1	1.7	 full
6	 T	2	153	 L	0	 r	 x	1.561	1	 x	 half
6	 T	2	154	 x	1	 l	 right	1.518	1	6	 full
6	 T	2	155	 x	0	 r	 x	1.599	1	1.7	 full
6	 T	2	156	 L	0	 r	 x	1.679	1	 x	 half
6	 T	2	157	 x	1	 l	 left	1.539	1	6	 full
6	 T	2	158	 x	1	 l	 left	1.618	1	1.7	 full
6	 T	2	159	 x	1	 l	 left	1.498	1	1.7	 full
6	 T	2	160	 x	0	 r	 x	1.529	1	6	 full
6	 T	2	161	 R	1	 l	 left	1.719	1	 x	 half
6	 T	2	162	 x	1	 l	 left	1.43	1	1.7	 full
6	 T	2	163	 x	0	 r	 x	1.478	1	6	 full
6	 T	2	164	 x	0	 r	 x	1.508	1	6	 full
6	 T	2	165	 x	0	 r	 x	1.459	1	6	 full
6	 T	2	166	 x	0	 r	 x	1.675	1	1.7	 full
6	 T	2	167	 x	0	 r	 x	1.569	1	6	 full
6	 T	2	168	 R	1	 l	 right	1.539	1	 x	 half
6	 T	2	169	 L	0	 r	 x	1.589	1	 x	 half
6	 T	2	170	 x	1	 l	 left	1.518	1	6	 full
6	 T	2	171	 L	0	 r	 x	1.66	1	 x	 half
6	 T	2	172	 x	1	 l	 left	1.459	1	6	 full
6	 T	2	173	 x	1	 l	 right	1.529	1	1.7	 full
6	 T	2	174	 x	0	 r	 x	1.599	1	1.7	 full
6	 T	2	175	 L	0	 r	 x	1.598	1	 x	 half
6	 T	2	176	 x	0	 r	 x	1.728	1	1.7	 full
6	 T	2	177	 R	1	 l	 right	1.389	1	 x	 half
6	 T	2	178	 x	0	 r	 x	1.563	1	6	 full
6	 T	2	179	 x	1	 l	 left	1.593	1	6	 full
6	 T	2	180	 x	0	 r	 x	1.618	1	1.7	 full
6	 T	2	181	 x	0	 r	 x	1.718	1	1.7	 full
6	 T	2	182	 R	1	 l	 left	1.617	1	 x	 half
6	 T	2	183	 x	0	 r	 x	1.468	1	6	 full
6	 T	2	184	 x	1	 l	 right	1.559	1	6	 full
6	 T	2	185	 L	1	 l	 right	1.589	1	 x	 half
6	 T	2	186	 x	0	 r	 x	1.639	1	6	 full
6	 T	2	187	 x	0	 r	 x	1.766	1	1.7	 full
6	 T	2	188	 x	0	 r	 x	1.537	1	1.7	 full
6	 T	2	189	 R	0	 r	 x	1.819	1	 x	 half
6	 T	2	190	 R	1	 l	 right	1.509	1	 x	 half
6	 T	2	191	 R	0	 r	 x	1.69	1	 x	 half
6	 T	2	192	 x	1	 l	 left	1.51	1	6	 full
6	 T	2	193	 x	1	 l	 left	1.599	1	6	 full
6	 T	2	194	 R	1	 l	 right	1.508	1	 x	 half
6	 T	2	195	 x	0	 r	 x	1.508	1	6	 full
6	 T	2	196	 x	1	 l	 right	1.709	1	1.7	 full
6	 T	2	197	 x	1	 r	 right	1.469	0	6	 full
6	 T	2	198	 R	0	 r	 x	1.659	1	 x	 half
6	 T	2	199	 x	1	 l	 left	1.658	1	1.7	 full
6	 T	2	200	 x	1	 l	 right	3.038	1	1.7	 full
6	 T	2	201	 R	1	 x	 right	1.616	1	 x	 half
6	 T	2	202	 x	1	 r	 right	1.665	0	6	 full
6	 T	2	203	 x	1	 l	 right	1.588	1	6	 full
6	 T	2	204	 x	0	 r	 x	1.72	1	1.7	 full
6	 T	2	205	 x	0	 r	 x	1.808	1	1.7	 full
6	 T	2	206	 x	1	 l	 left	1.549	1	6	 full
6	 T	2	207	 x	1	 l	 left	1.579	1	1.7	 full
6	 T	2	208	 x	0	 r	 x	1.499	1	1.7	 full
6	 T	2	209	 L	1	 r	 right	1.47	0	 x	 half
6	 T	2	210	 L	1	 l	 right	1.567	1	 x	 half
6	 T	2	211	 x	0	 r	 x	1.639	1	6	 full
6	 T	2	212	 x	1	 l	 left	1.594	1	1.7	 full
6	 T	2	213	 x	0	 r	 x	1.618	1	6	 full
6	 T	2	214	 x	0	 r	 x	1.749	1	1.7	 full
6	 T	2	215	 x	0	 r	 x	1.54	1	6	 full
6	 T	2	216	 x	0	 r	 x	1.488	1	6	 full
6	 T	2	217	 L	1	 l	 left	1.479	1	 x	 half
6	 T	2	218	 x	0	 r	 x	1.569	1	6	 full
6	 T	2	219	 x	1	 l	 left	1.518	1	6	 full
6	 T	2	220	 x	0	 r	 x	1.619	1	1.7	 full
6	 T	2	221	 x	1	 l	 left	1.524	1	6	 full
6	 T	2	222	 x	1	 l	 right	1.808	1	1.7	 full
6	 T	2	223	 R	1	 l	 right	1.608	1	 x	 half
6	 T	2	224	 L	0	 l	 x	1.681	0	 x	 half
6	 T	2	225	 R	1	 l	 left	1.769	1	 x	 half
6	 T	2	226	 x	1	 l	 right	1.7	1	1.7	 full
6	 T	2	227	 R	1	 l	 right	1.5	1	 x	 half
6	 T	2	228	 x	1	 l	 left	1.529	1	1.7	 full
6	 T	2	229	 x	0	 r	 x	1.509	1	6	 full
6	 T	2	230	 x	0	 r	 x	1.668	1	1.7	 full
6	 T	2	231	 x	0	 r	 x	1.53	1	1.7	 full
6	 T	2	232	 x	0	 r	 x	1.519	1	6	 full
6	 T	2	233	 x	0	 r	 x	1.559	1	1.7	 full
6	 T	2	234	 x	1	 r	 left	1.729	0	1.7	 full
6	 T	2	235	 x	0	 r	 x	2.04	1	1.7	 full
6	 T	2	236	 x	1	 x	 right	1.56	1	6	 full
6	 T	2	237	 x	0	 r	 x	1.805	1	6	 full
6	 T	2	238	 x	1	 l	 right	1.509	1	6	 full
6	 T	2	239	 R	0	 r	 x	1.668	1	 x	 half
6	 T	2	240	 x	1	 l	 left	1.399	1	6	 full
6	 N	1	1	 R	1	 l	 right	1.67	1	 x	 half
6	 N	1	2	 x	1	 l	 right	1.668	1	1.7	 full
6	 N	1	3	 x	1	 l	 left	1.628	1	1.7	 full
6	 N	1	4	 x	0	 r	 x	1.788	1	1.7	 full
6	 N	1	5	 x	0	 r	 x	1.561	1	6	 full
6	 N	1	6	 x	0	 r	 x	1.548	1	6	 full
6	 N	1	7	 x	0	 r	 x	1.987	1	1.7	 full
6	 N	1	8	 x	1	 l	 left	1.849	1	1.7	 full
6	 N	1	9	 x	0	 r	 x	1.649	1	6	 full
6	 N	1	10	 R	1	 l	 left	2.199	1	 x	 half
6	 N	1	11	 x	0	 r	 x	1.739	1	1.7	 full
6	 N	1	12	 L	1	 l	 right	1.498	1	 x	 half
6	 N	1	13	 L	0	 r	 x	1.828	1	 x	 half
6	 N	1	14	 L	1	 l	 right	1.648	1	 x	 half
6	 N	1	15	 x	1	 l	 left	1.599	1	1.7	 full
6	 N	1	16	 x	0	 r	 x	1.579	1	6	 full
6	 N	1	17	 x	0	 r	 x	1.658	1	1.7	 full
6	 N	1	18	 R	0	 r	 x	1.819	1	 x	 half
6	 N	1	19	 L	1	 l	 left	1.579	1	 x	 half
6	 N	1	20	 x	1	 l	 right	1.588	1	1.7	 full
6	 N	1	21	 x	0	 r	 x	1.698	1	1.7	 full
6	 N	1	22	 R	1	 l	 left	1.609	1	 x	 half
6	 N	1	23	 x	1	 l	 left	1.499	1	1.7	 full
6	 N	1	24	 R	1	 l	 right	1.759	1	 x	 half
6	 N	1	25	 x	0	 r	 x	1.572	1	6	 full
6	 N	1	26	 x	0	 r	 x	1.592	1	6	 full
6	 N	1	27	 L	0	 r	 x	1.768	1	 x	 half
6	 N	1	28	 x	0	 r	 x	1.629	1	6	 full
6	 N	1	29	 L	0	 r	 x	1.69	1	 x	 half
6	 N	1	30	 L	0	 r	 x	1.692	1	 x	 half
6	 N	1	31	 x	0	 r	 x	1.917	1	1.7	 full
6	 N	1	32	 x	0	 r	 x	1.678	1	1.7	 full
6	 N	1	33	 x	1	 l	 right	1.588	1	6	 full
6	 N	1	34	 x	1	 r	 left	1.627	0	1.7	 full
6	 N	1	35	 R	0	 r	 x	1.76	1	 x	 half
6	 N	1	36	 x	0	 r	 x	1.681	1	1.7	 full
6	 N	1	37	 x	1	 l	 left	1.699	1	1.7	 full
6	 N	1	38	 L	1	 l	 right	1.768	1	 x	 half
6	 N	1	39	 R	1	 l	 right	1.518	1	 x	 half
6	 N	1	40	 x	0	 r	 x	1.629	1	6	 full
6	 N	1	41	 x	1	 l	 left	1.589	1	6	 full
6	 N	1	42	 x	0	 r	 x	1.589	1	6	 full
6	 N	1	43	 x	0	 r	 x	1.608	1	1.7	 full
6	 N	1	44	 x	0	 r	 x	1.538	1	6	 full
6	 N	1	45	 x	1	 l	 left	1.708	1	1.7	 full
6	 N	1	46	 L	0	 r	 x	1.688	1	 x	 half
6	 N	1	47	 x	0	 r	 x	1.618	1	6	 full
6	 N	1	48	 x	0	 r	 x	1.558	1	1.7	 full
6	 N	1	49	 x	1	 r	 left	1.568	0	1.7	 full
6	 N	1	50	 R	1	 l	 right	1.479	1	 x	 half
6	 N	1	51	 L	1	 l	 left	1.598	1	 x	 half
6	 N	1	52	 x	1	 l	 left	1.619	1	1.7	 full
6	 N	1	53	 L	1	 l	 right	1.56	1	 x	 half
6	 N	1	54	 x	1	 l	 left	1.569	1	6	 full
6	 N	1	55	 x	1	 l	 right	1.548	1	6	 full
6	 N	1	56	 x	0	 r	 x	1.789	1	1.7	 full
6	 N	1	57	 L	0	 r	 x	1.727	1	 x	 half
6	 N	1	58	 x	1	 l	 right	1.568	1	6	 full
6	 N	1	59	 x	0	 r	 x	1.688	1	6	 full
6	 N	1	60	 R	1	 l	 left	1.646	1	 x	 half
6	 N	1	61	 x	0	 r	 x	2.158	1	1.7	 full
6	 N	1	62	 x	0	 r	 x	1.618	1	6	 full
6	 N	1	63	 L	1	 l	 left	1.617	1	 x	 half
6	 N	1	64	 R	0	 r	 x	1.689	1	 x	 half
6	 N	1	65	 x	1	 l	 right	1.559	1	6	 full
6	 N	1	66	 x	0	 r	 x	1.609	1	6	 full
6	 N	1	67	 x	0	 r	 x	1.679	1	6	 full
6	 N	1	68	 L	0	 r	 x	1.668	1	 x	 half
6	 N	1	69	 x	1	 l	 right	1.599	1	6	 full
6	 N	1	70	 L	0	 r	 x	1.639	1	 x	 half
6	 N	1	71	 x	1	 l	 right	1.57	1	1.7	 full
6	 N	1	72	 x	1	 l	 right	1.619	1	6	 full
6	 N	1	73	 x	0	 r	 x	1.739	1	6	 full
6	 N	1	74	 x	1	 l	 right	1.738	1	1.7	 full
6	 N	1	75	 L	1	 l	 right	1.769	1	 x	 half
6	 N	1	76	 L	1	 l	 left	1.468	1	 x	 half
6	 N	1	77	 x	0	 r	 x	1.649	1	6	 full
6	 N	1	78	 x	1	 l	 right	1.578	1	6	 full
6	 N	1	79	 x	1	 l	 left	1.809	1	1.7	 full
6	 N	1	80	 R	1	 l	 right	1.469	1	 x	 half
6	 N	1	81	 x	0	 r	 x	1.738	1	6	 full
6	 N	1	82	 x	0	 r	 x	2.626	1	6	 full
6	 N	1	83	 R	0	 r	 x	3.349	1	 x	 half
6	 N	1	84	 x	0	 r	 x	1.53	1	6	 full
6	 N	1	85	 x	1	 l	 left	1.539	1	6	 full
6	 N	1	86	 R	0	 r	 x	1.698	1	 x	 half
6	 N	1	87	 x	1	 l	 left	1.439	1	6	 full
6	 N	1	88	 L	0	 r	 x	1.637	1	 x	 half
6	 N	1	89	 L	0	 r	 x	1.817	1	 x	 half
6	 N	1	90	 x	1	 l	 left	1.559	1	6	 full
6	 N	1	91	 x	1	 l	 left	1.639	1	1.7	 full
6	 N	1	92	 x	1	 l	 right	1.658	1	1.7	 full
6	 N	1	93	 x	0	 r	 x	1.688	1	1.7	 full
6	 N	1	94	 R	0	 r	 x	1.719	1	 x	 half
6	 N	1	95	 L	0	 r	 x	1.558	1	 x	 half
6	 N	1	96	 L	1	 l	 left	1.627	1	 x	 half
6	 N	1	97	 x	0	 r	 x	1.628	1	6	 full
6	 N	1	98	 x	1	 l	 left	1.648	1	6	 full
6	 N	1	99	 x	0	 r	 x	1.579	1	6	 full
6	 N	1	100	 x	0	 r	 x	1.728	1	1.7	 full
6	 N	1	101	 x	1	 l	 right	1.742	1	1.7	 full
6	 N	1	102	 R	0	 r	 x	1.59	1	 x	 half
6	 N	1	103	 x	0	 r	 x	1.518	1	1.7	 full
6	 N	1	104	 x	0	 r	 x	1.579	1	6	 full
6	 N	1	105	 x	1	 r	 right	1.569	0	1.7	 full
6	 N	1	106	 L	0	 r	 x	1.678	1	 x	 half
6	 N	1	107	 x	1	 l	 right	1.627	1	6	 full
6	 N	1	108	 L	1	 l	 left	1.479	1	 x	 half
6	 N	1	109	 x	1	 l	 right	1.699	1	6	 full
6	 N	1	110	 x	0	 r	 x	1.711	1	1.7	 full
6	 N	1	111	 L	0	 r	 x	1.658	1	 x	 half
6	 N	1	112	 L	0	 r	 x	1.619	1	 x	 half
6	 N	1	113	 L	1	 l	 left	1.478	1	 x	 half
6	 N	1	114	 x	0	 r	 x	1.598	1	6	 full
6	 N	1	115	 x	0	 r	 x	1.642	1	6	 full
6	 N	1	116	 x	1	 l	 left	1.909	1	6	 full
6	 N	1	117	 x	1	 l	 left	1.518	1	6	 full
6	 N	1	118	 x	1	 l	 right	1.709	1	1.7	 full
6	 N	1	119	 R	1	 l	 right	1.518	1	 x	 half
6	 N	1	120	 x	0	 r	 x	1.579	1	1.7	 full
6	 N	1	121	 x	1	 r	 left	1.649	0	1.7	 full
6	 N	1	122	 x	1	 l	 left	1.646	1	1.7	 full
6	 N	1	123	 x	0	 r	 x	3.017	1	1.7	 full
6	 N	1	124	 x	0	 r	 x	2.2	1	1.7	 full
6	 N	1	125	 R	1	 l	 right	1.52	1	 x	 half
6	 N	1	126	 L	0	 r	 x	1.838	1	 x	 half
6	 N	1	127	 R	0	 r	 x	1.839	1	 x	 half
6	 N	1	128	 R	0	 r	 x	1.607	1	 x	 half
6	 N	1	129	 x	1	 l	 right	1.847	1	1.7	 full
6	 N	1	130	 x	1	 l	 right	1.508	1	6	 full
6	 N	1	131	 x	0	 r	 x	1.738	1	6	 full
6	 N	1	132	 x	1	 l	 left	1.439	1	6	 full
6	 N	1	133	 R	0	 r	 x	1.627	1	 x	 half
6	 N	1	134	 L	0	 r	 x	1.729	1	 x	 half
6	 N	1	135	 R	1	 l	 left	1.659	1	 x	 half
6	 N	1	136	 x	1	 l	 right	1.748	1	1.7	 full
6	 N	1	137	 x	0	 r	 x	1.817	1	1.7	 full
6	 N	1	138	 x	0	 r	 x	1.848	1	1.7	 full
6	 N	1	139	 x	0	 r	 x	1.609	1	6	 full
6	 N	1	140	 R	0	 r	 x	1.62	1	 x	 half
6	 N	1	141	 x	1	 l	 left	1.67	1	1.7	 full
6	 N	1	142	 x	1	 l	 right	1.559	1	6	 full
6	 N	1	143	 x	0	 r	 x	1.659	1	1.7	 full
6	 N	1	144	 x	0	 r	 x	1.659	1	1.7	 full
6	 N	1	145	 x	0	 r	 x	1.698	1	6	 full
6	 N	1	146	 R	0	 r	 x	1.658	1	 x	 half
6	 N	1	147	 x	1	 l	 right	1.779	1	1.7	 full
6	 N	1	148	 x	1	 l	 left	1.628	1	6	 full
6	 N	1	149	 x	0	 r	 x	1.639	1	6	 full
6	 N	1	150	 R	0	 r	 x	1.728	1	 x	 half
6	 N	1	151	 R	0	 r	 x	1.608	1	 x	 half
6	 N	1	152	 R	0	 r	 x	1.549	1	 x	 half
6	 N	1	153	 L	1	 l	 right	1.708	1	 x	 half
6	 N	1	154	 x	1	 l	 right	1.839	1	1.7	 full
6	 N	1	155	 x	1	 l	 left	1.484	1	6	 full
6	 N	1	156	 x	0	 r	 x	2.547	1	1.7	 full
6	 N	1	157	 x	1	 l	 left	1.961	1	6	 full
6	 N	1	158	 x	0	 r	 x	1.749	1	6	 full
6	 N	1	159	 x	0	 r	 x	1.718	1	6	 full
6	 N	1	160	 x	0	 r	 x	1.858	1	1.7	 full
6	 N	1	161	 x	0	 r	 x	1.587	1	1.7	 full
6	 N	1	162	 x	1	 l	 right	1.769	1	1.7	 full
6	 N	1	163	 L	1	 l	 right	1.708	1	 x	 half
6	 N	1	164	 x	1	 l	 left	1.807	1	1.7	 full
6	 N	1	165	 x	1	 l	 right	1.769	1	1.7	 full
6	 N	1	166	 x	1	 l	 right	1.508	1	6	 full
6	 N	1	167	 x	0	 r	 x	1.909	1	1.7	 full
6	 N	1	168	 L	1	 l	 left	1.66	1	 x	 half
6	 N	1	169	 x	1	 l	 left	1.479	1	6	 full
6	 N	1	170	 x	1	 l	 left	1.53	1	6	 full
6	 N	1	171	 x	0	 r	 x	1.779	1	1.7	 full
6	 N	1	172	 R	1	 l	 left	1.697	1	 x	 half
6	 N	1	173	 x	1	 r	 right	1.629	0	1.7	 full
6	 N	1	174	 x	0	 r	 x	1.698	1	1.7	 full
6	 N	1	175	 x	0	 r	 x	1.628	1	1.7	 full
6	 N	1	176	 x	0	 r	 x	1.628	1	6	 full
6	 N	1	177	 x	0	 r	 x	1.669	1	1.7	 full
6	 N	1	178	 R	0	 r	 x	1.638	1	 x	 half
6	 N	1	179	 x	1	 l	 right	1.808	1	1.7	 full
6	 N	1	180	 x	1	 l	 right	1.519	1	6	 full
6	 N	1	181	 x	1	 l	 right	1.638	1	1.7	 full
6	 N	1	182	 x	1	 l	 left	1.518	1	6	 full
6	 N	1	183	 x	1	 l	 right	1.467	1	6	 full
6	 N	1	184	 L	0	 r	 x	1.788	1	 x	 half
6	 N	1	185	 x	0	 r	 x	1.758	1	1.7	 full
6	 N	1	186	 x	0	 r	 x	1.648	1	1.7	 full
6	 N	1	187	 x	0	 r	 x	1.553	1	6	 full
6	 N	1	188	 L	0	 r	 x	1.748	1	 x	 half
6	 N	1	189	 R	0	 r	 x	1.569	1	 x	 half
6	 N	1	190	 L	0	 r	 x	1.608	1	 x	 half
6	 N	1	191	 R	1	 l	 right	1.658	1	 x	 half
6	 N	1	192	 R	1	 l	 right	1.748	1	 x	 half
6	 N	1	193	 R	1	 r	 left	1.938	0	 x	 half
6	 N	1	194	 x	1	 l	 left	1.499	1	6	 full
6	 N	1	195	 x	0	 r	 x	1.698	1	6	 full
6	 N	1	196	 x	0	 r	 x	1.64	1	1.7	 full
6	 N	1	197	 x	1	 l	 left	1.578	1	6	 full
6	 N	1	198	 x	1	 l	 right	1.489	1	6	 full
6	 N	1	199	 R	1	 l	 right	1.479	1	 x	 half
6	 N	1	200	 R	0	 r	 x	1.647	1	 x	 half
6	 N	1	201	 x	1	 l	 left	1.479	1	6	 full
6	 N	1	202	 x	1	 l	 right	1.67	1	1.7	 full
6	 N	1	203	 x	1	 l	 left	1.58	1	1.7	 full
6	 N	1	204	 x	1	 l	 left	1.551	1	1.7	 full
6	 N	1	205	 L	1	 l	 left	1.618	1	 x	 half
6	 N	1	206	 x	1	 l	 left	1.488	1	6	 full
6	 N	1	207	 L	0	 r	 x	1.664	1	 x	 half
6	 N	1	208	 x	1	 l	 left	1.518	1	6	 full
6	 N	1	209	 x	1	 l	 right	1.699	1	6	 full
6	 N	1	210	 L	1	 l	 left	1.489	1	 x	 half
6	 N	1	211	 L	1	 l	 right	1.588	1	 x	 half
6	 N	1	212	 x	0	 r	 x	1.809	1	6	 full
6	 N	1	213	 x	1	 l	 right	1.62	1	6	 full
6	 N	1	214	 L	1	 l	 left	1.528	1	 x	 half
6	 N	1	215	 x	0	 r	 x	1.629	1	1.7	 full
6	 N	1	216	 x	0	 r	 x	1.758	1	1.7	 full
6	 N	1	217	 x	0	 r	 x	1.589	1	6	 full
6	 N	1	218	 L	1	 l	 left	1.689	1	 x	 half
6	 N	1	219	 L	1	 l	 left	1.589	1	 x	 half
6	 N	1	220	 x	0	 r	 x	1.67	1	1.7	 full
6	 N	1	221	 x	0	 r	 x	1.589	1	6	 full
6	 N	1	222	 x	1	 l	 left	1.469	1	1.7	 full
6	 N	1	223	 R	1	 l	 right	1.509	1	 x	 half
6	 N	1	224	 x	1	 l	 right	1.48	1	6	 full
6	 N	1	225	 x	1	 l	 right	1.611	1	6	 full
6	 N	1	226	 x	0	 r	 x	1.659	1	6	 full
6	 N	1	227	 x	0	 r	 x	1.579	1	1.7	 full
6	 N	1	228	 L	1	 l	 left	1.589	1	 x	 half
6	 N	1	229	 x	1	 l	 right	1.849	1	1.7	 full
6	 N	1	230	 x	1	 r	 right	1.538	0	1.7	 full
6	 N	1	231	 L	1	 l	 right	1.469	1	 x	 half
6	 N	1	232	 x	1	 l	 right	1.579	1	6	 full
6	 N	1	233	 x	0	 r	 x	1.609	1	6	 full
6	 N	1	234	 x	0	 r	 x	1.639	1	1.7	 full
6	 N	1	235	 x	1	 l	 left	1.778	1	1.7	 full
6	 N	1	236	 x	0	 r	 x	1.59	1	6	 full
6	 N	1	237	 L	0	 r	 x	1.608	1	 x	 half
6	 N	1	238	 x	1	 l	 left	1.718	1	1.7	 full
6	 N	1	239	 x	0	 r	 x	1.678	1	1.7	 full
6	 N	1	240	 R	0	 r	 x	1.509	1	 x	 half
7	 T	1	1	 x	0	 r	 x	3.224	1	1.7	 full
7	 T	1	2	 R	1	 l	 right	2.228	1	 x	 half
7	 T	1	3	 x	1	 l	 right	2.068	1	6	 full
7	 T	1	4	 L	1	 l	 left	2.416	1	 x	 half
7	 T	1	5	 x	0	 r	 x	2.608	1	1.7	 full
7	 T	1	6	 L	1	 x	 left	3.556	1	 x	 half
7	 T	1	7	 R	1	 x	 left	1.065	1	 x	 half
7	 T	1	8	 x	0	 x	 x	6.971	1	6	 full
7	 T	1	9	 x	1	 l	 right	1.785	1	6	 full
7	 T	1	10	 R	0	 r	 x	3.179	1	 x	 half
7	 T	1	11	 L	0	 r	 x	2.055	1	 x	 half
7	 T	1	12	 x	1	 l	 right	1.767	1	6	 full
7	 T	1	13	 x	0	 r	 x	2.535	1	6	 full
7	 T	1	14	 x	1	 l	 left	1.838	1	6	 full
7	 T	1	15	 x	0	 r	 x	2.816	1	1.7	 full
7	 T	1	16	 x	0	 r	 x	2.537	1	6	 full
7	 T	1	17	 x	0	 r	 x	2.678	1	6	 full
7	 T	1	18	 x	1	 r	 left	2.757	0	1.7	 full
7	 T	1	19	 L	0	 x	 x	6.313	1	 x	 half
7	 T	1	20	 x	0	 r	 x	2.137	1	6	 full
7	 T	1	21	 x	0	 x	 x	4.237	1	1.7	 full
7	 T	1	22	 x	1	 l	 right	1.765	1	6	 full
7	 T	1	23	 x	1	 l	 left	1.648	1	6	 full
7	 T	1	24	 x	0	 r	 x	2.166	1	1.7	 full
7	 T	1	25	 L	0	 r	 x	2.656	1	 x	 half
7	 T	1	26	 x	0	 r	 x	2.025	1	6	 full
7	 T	1	27	 x	1	 r	 right	2.099	0	1.7	 full
7	 T	1	28	 x	1	 l	 left	2.539	1	6	 full
7	 T	1	29	 x	1	 r	 right	2.528	0	1.7	 full
7	 T	1	30	 L	0	 r	 x	2.324	1	 x	 half
7	 T	1	31	 x	0	 r	 x	3.237	1	1.7	 full
7	 T	1	32	 x	0	 r	 x	2.026	1	1.7	 full
7	 T	1	33	 x	0	 r	 x	2.787	1	6	 full
7	 T	1	34	 x	0	 r	 x	1.719	1	1.7	 full
7	 T	1	35	 x	1	 l	 right	1.768	1	6	 full
7	 T	1	36	 R	0	 r	 x	2.776	1	 x	 half
7	 T	1	37	 x	1	 r	 left	2.308	0	1.7	 full
7	 T	1	38	 L	0	 r	 x	2.689	1	 x	 half
7	 T	1	39	 x	0	 r	 x	1.748	1	1.7	 full
7	 T	1	40	 R	0	 r	 x	2.135	1	 x	 half
7	 T	1	41	 L	0	 r	 x	2.308	1	 x	 half
7	 T	1	42	 L	1	 l	 right	2.078	1	 x	 half
7	 T	1	43	 x	1	 r	 left	2.837	0	1.7	 full
7	 T	1	44	 x	0	 r	 x	3.026	1	1.7	 full
7	 T	1	45	 x	0	 r	 x	3.247	1	1.7	 full
7	 T	1	46	 x	0	 r	 x	2.175	1	1.7	 full
7	 T	1	47	 L	0	 r	 x	2.677	1	 x	 half
7	 T	1	48	 x	0	 r	 x	2.185	1	6	 full
7	 T	1	49	 x	0	 r	 x	2.576	1	6	 full
7	 T	1	50	 x	1	 l	 right	1.889	1	1.7	 full
7	 T	1	51	 x	0	 r	 x	2.247	1	1.7	 full
7	 T	1	52	 L	1	 r	 left	2.238	0	 x	 half
7	 T	1	53	 R	1	 l	 left	1.989	1	 x	 half
7	 T	1	54	 L	1	 l	 left	1.909	1	 x	 half
7	 T	1	55	 L	0	 r	 x	2.629	1	 x	 half
7	 T	1	56	 R	1	 l	 right	2.328	1	 x	 half
7	 T	1	57	 R	1	 r	 left	2.681	0	 x	 half
7	 T	1	58	 x	0	 x	 x	4.165	1	1.7	 full
7	 T	1	59	 L	1	 l	 left	1.737	1	 x	 half
7	 T	1	60	 x	1	 l	 right	1.797	1	6	 full
7	 T	1	61	 x	1	 x	 right	1.848	1	6	 full
7	 T	1	62	 x	0	 r	 x	1.987	1	1.7	 full
7	 T	1	63	 L	0	 r	 x	2.847	1	 x	 half
7	 T	1	64	 x	0	 l	 x	2.958	0	1.7	 full
7	 T	1	65	 x	1	 l	 left	2.129	1	6	 full
7	 T	1	66	 R	1	 l	 right	2.192	1	 x	 half
7	 T	1	67	 x	0	 x	 x	1.31	1	6	 full
7	 T	1	68	 x	0	 r	 x	2.528	1	6	 full
7	 T	1	69	 x	0	 l	 x	2.558	0	1.7	 full
7	 T	1	70	 R	0	 r	 x	2.437	1	 x	 half
7	 T	1	71	 L	1	 l	 left	1.882	1	 x	 half
7	 T	1	72	 x	0	 r	 x	2.828	1	1.7	 full
7	 T	1	73	 L	1	 l	 right	3.138	1	 x	 half
7	 T	1	74	 x	0	 r	 x	2.188	1	1.7	 full
7	 T	1	75	 R	0	 r	 x	2.089	1	 x	 half
7	 T	1	76	 x	0	 r	 x	2.569	1	1.7	 full
7	 T	1	77	 x	1	 l	 left	1.928	1	6	 full
7	 T	1	78	 x	1	 x	 left	1.77	1	6	 full
7	 T	1	79	 x	1	 x	 left	2.077	1	1.7	 full
7	 T	1	80	 L	0	 r	 x	2.598	1	 x	 half
7	 T	1	81	 x	0	 r	 x	2.581	1	1.7	 full
7	 T	1	82	 x	1	 l	 left	1.698	1	6	 full
7	 T	1	83	 x	1	 l	 left	2.057	1	1.7	 full
7	 T	1	84	 x	0	 r	 x	2.009	1	6	 full
7	 T	1	85	 L	0	 r	 x	2.542	1	 x	 half
7	 T	1	86	 x	1	 l	 right	1.768	1	6	 full
7	 T	1	87	 L	1	 l	 left	2.008	1	 x	 half
7	 T	1	88	 x	0	 r	 x	1.749	1	6	 full
